"Number","Position","Team","Age","Foot","Experience","Experience_VFF","Video","Decision","RT","Trial_Number","participant","highest_prio","highest_prio_named","answer","accuracy"
13,"Fosvarsspiller","U14",13,"Højre",8,3,"Warmup/Klip_1\Klip_1_1","link out",17.3245278000832,1,3,1,"Highest free man",2,"Good"
13,"Fosvarsspiller","U14",13,"Højre",8,3,"Warmup/Klip_2\Klip_2_2","switch play",13.8046386999777,2,3,2,"Link out",3,"Good"
13,"Fosvarsspiller","U14",13,"Højre",8,3,"Warmup/Klip_3\Klip_3_1","highest free man",12.8445446999976,3,3,1,"Highest free man",1,"Best"
13,"Fosvarsspiller","U14",13,"Højre",8,3,"Klip_26\Klip_26_1","switch play",14.619289000053,4,3,1,"Highest free man",3,"Good"
13,"Fosvarsspiller","U14",13,"Højre",8,3,"Klip_13\Klip_13_1","highest free man2",11.1705787000246,5,3,1,"Highest free man",1,"Best"
13,"Fosvarsspiller","U14",13,"Højre",8,3,"Klip_43\Klip_43_2","pass it over",24.4603678999702,6,3,2,"Link out",4,"Good"
13,"Fosvarsspiller","U14",13,"Højre",8,3,"Klip_28\Klip_28_3","pass it over",6.13844860007521,7,3,3,"Switch play to open lines",4,"Good"
13,"Fosvarsspiller","U14",13,"Højre",8,3,"Klip_55\Klip_55_2","link out",28.3850812999299,8,3,2,"Link out",2,"Best"
13,"Fosvarsspiller","U14",13,"Højre",8,3,"Klip_80\Klip_80_3","switch play2",6.84343580005225,9,3,3,"Switch play to open lines",3,"Best"
13,"Fosvarsspiller","U14",13,"Højre",8,3,"Klip_30\Klip_30_1","switch play",2.25595080002677,10,3,1,"Highest free man",3,"Good"
13,"Fosvarsspiller","U14",13,"Højre",8,3,"Klip_57\Klip_57_2","link out",20.1146643999964,11,3,2,"Link out",2,"Best"
13,"Fosvarsspiller","U14",13,"Højre",8,3,"Klip_64\Klip_64_2","pass it over",18.329335300019,12,3,2,"Link out",4,"Good"
13,"Fosvarsspiller","U14",13,"Højre",8,3,"Klip_77\Klip_77_2","link out2",12.1075844999868,13,3,2,"Link out",2,"Best"
13,"Fosvarsspiller","U14",13,"Højre",8,3,"Klip_32\Klip_32_3","switch play2",18.206615800038,14,3,3,"Switch play to open lines",3,"Best"
13,"Fosvarsspiller","U14",13,"Højre",8,3,"Klip_10\Klip_10_1","link out",4.4304928999627,15,3,1,"Highest free man",2,"Good"
13,"Fosvarsspiller","U14",13,"Højre",8,3,"Klip_27\Klip_27_1","highest free man2",19.620145700057,16,3,1,"Highest free man",1,"Best"
13,"Fosvarsspiller","U14",13,"Højre",8,3,"Klip_78\Klip_78_1","switch play",7.15262970002368,17,3,1,"Highest free man",3,"Good"
13,"Fosvarsspiller","U14",13,"Højre",8,3,"Klip_74\Klip_74_1","highest free man",2.77658169995993,18,3,1,"Highest free man",1,"Best"
13,"Fosvarsspiller","U14",13,"Højre",8,3,"Klip_22\Klip_22_1","highest free man",6.87699240003712,19,3,1,"Highest free man",1,"Best"
13,"Fosvarsspiller","U14",13,"Højre",8,3,"Klip_38\Klip_38_1","highest free man2",12.4288169000065,20,3,1,"Highest free man",1,"Best"
13,"Fosvarsspiller","U14",13,"Højre",8,3,"Klip_33\Klip_33_1","highest free man",5.8722733000759,21,3,1,"Highest free man",1,"Best"
13,"Fosvarsspiller","U14",13,"Højre",8,3,"Klip_59\Klip_59_1","highest free man2",4.59745169989765,22,3,1,"Highest free man",1,"Best"
13,"Fosvarsspiller","U14",13,"Højre",8,3,"Klip_81\Klip_81_4","pass it over",6.9921200000681,23,3,4,"Pass it over the opponent",4,"Best"
13,"Fosvarsspiller","U14",13,"Højre",8,3,"Klip_69\Klip_69_2","false highest free man",8.17798909998965,24,3,2,"Link out",5,"Bad"
13,"Fosvarsspiller","U14",13,"Højre",8,3,"Klip_85\Klip_85_4","false switch play2",5.72266430000309,25,3,4,"Pass it over the opponent",7,"Bad"
13,"Fosvarsspiller","U14",13,"Højre",8,3,"Klip_21\Klip_21_2","switch play",16.4647683000658,26,3,2,"Link out",3,"Good"
13,"Fosvarsspiller","U14",13,"Højre",8,3,"Klip_94\Klip_94_3","switch play",1.21960079995915,27,3,3,"Switch play to open lines",3,"Best"
13,"Fosvarsspiller","U14",13,"Højre",8,3,"Klip_90\Klip_90_4","false switch play",4.18826990004163,28,3,4,"Pass it over the opponent",7,"Bad"
13,"Fosvarsspiller","U14",13,"Højre",8,3,"Klip_8\Klip_8_2","switch play",15.8352699999232,29,3,2,"Link out",3,"Good"
13,"Fosvarsspiller","U14",13,"Højre",8,3,"Klip_6\Klip_6_1","link out2",9.95018889999483,30,3,1,"Highest free man",2,"Good"
13,"Fosvarsspiller","U14",13,"Højre",8,3,"Klip_58\Klip_58_3","switch play2",5.74891429999843,31,3,3,"Switch play to open lines",3,"Best"
13,"Fosvarsspiller","U14",13,"Højre",8,3,"Klip_91\Klip_91_3","switch play2",5.38841249991674,32,3,3,"Switch play to open lines",3,"Best"
13,"Fosvarsspiller","U14",13,"Højre",8,3,"Klip_16\Klip_16_1","highest free man",2.47251820005476,33,3,1,"Highest free man",1,"Best"
13,"Fosvarsspiller","U14",13,"Højre",8,3,"Klip_39\Klip_39_3","switch play2",9.11712629999965,34,3,3,"Switch play to open lines",3,"Best"
13,"Fosvarsspiller","U14",13,"Højre",8,3,"Klip_7\Klip_7_1","link out",7.26250609999988,35,3,1,"Highest free man",2,"Good"
13,"Fosvarsspiller","U14",13,"Højre",8,3,"Klip_65\Klip_65_2","switch play",1.83576779998839,36,3,2,"Link out",3,"Good"
13,"Fosvarsspiller","U14",13,"Højre",8,3,"Klip_60\Klip_60_3","switch play",17.4450546000153,37,3,3,"Switch play to open lines",3,"Best"
13,"Fosvarsspiller","U14",13,"Højre",8,3,"Klip_66\Klip_66_1","switch play2",5.17782139999326,38,3,1,"Highest free man",3,"Good"
13,"Fosvarsspiller","U14",13,"Højre",8,3,"Klip_70\Klip_70_1","switch play",3.46281749999616,39,3,1,"Highest free man",3,"Good"
13,"Fosvarsspiller","U14",13,"Højre",8,3,"Klip_86\Klip_86_3","switch play",2.81416760000866,40,3,3,"Switch play to open lines",3,"Best"
13,"Fosvarsspiller","U14",13,"Højre",8,3,"Klip_14\Klip_14_1","switch play2",2.25163720001001,41,3,1,"Highest free man",3,"Good"
13,"Fosvarsspiller","U14",13,"Højre",8,3,"Klip_23\Klip_23_2","switch play2",5.58238160004839,42,3,2,"Link out",3,"Good"
13,"Fosvarsspiller","U14",13,"Højre",8,3,"Klip_35\Klip_35_1","highest free man",2.15056610002648,43,3,1,"Highest free man",1,"Best"
13,"Fosvarsspiller","U14",13,"Højre",8,3,"Klip_83\Klip_83_4","false highest free man",5.06711980002001,44,3,4,"Pass it over the opponent",5,"Bad"
13,"Fosvarsspiller","U14",13,"Højre",8,3,"Klip_92\Klip_92_3","switch play2",7.93822400004137,45,3,3,"Switch play to open lines",3,"Best"
13,"Fosvarsspiller","U14",13,"Højre",8,3,"Klip_87\Klip_87_3","switch play",8.44922609999776,46,3,3,"Switch play to open lines",3,"Best"
13,"Fosvarsspiller","U14",13,"Højre",8,3,"Klip_15\Klip_15_1","false highest free man",9.62938120006584,47,3,1,"Highest free man",5,"Bad"
13,"Fosvarsspiller","U14",13,"Højre",8,3,"Klip_36\Klip_36_1","switch play",14.239627800067,48,3,1,"Highest free man",3,"Good"
13,"Fosvarsspiller","U14",13,"Højre",8,3,"Klip_84\Klip_84_4","false switch play2",13.5341795999557,49,3,4,"Pass it over the opponent",7,"Bad"
13,"Fosvarsspiller","U14",13,"Højre",8,3,"Klip_82\Klip_82_4","pass it over",6.84406530007254,50,3,4,"Pass it over the opponent",4,"Best"
13,"Fosvarsspiller","U14",13,"Højre",8,3,"Klip_17\Klip_17_2","link out",6.82900420005899,51,3,2,"Link out",2,"Best"
13,"Fosvarsspiller","U14",13,"Højre",8,3,"Klip_73\Klip_73_2","switch play2",2.04508139996324,52,3,2,"Link out",3,"Good"
13,"Fosvarsspiller","U14",13,"Højre",8,3,"Klip_88\Klip_88_4","false switch play",5.7184578999877,53,3,4,"Pass it over the opponent",7,"Bad"
13,"Fosvarsspiller","U14",13,"Højre",8,3,"Klip_45\Klip_45_3","switch play2",2.09274509991519,54,3,3,"Switch play to open lines",3,"Best"
13,"Fosvarsspiller","U14",13,"Højre",8,3,"Klip_18\Klip_18_3","switch play",13.4754541000584,55,3,3,"Switch play to open lines",3,"Best"
13,"Fosvarsspiller","U14",13,"Højre",8,3,"Klip_72\Klip_72_1","switch play",9.13160959992092,56,3,1,"Highest free man",3,"Good"
13,"Fosvarsspiller","U14",13,"Højre",8,3,"Klip_12\Klip_12_2","switch play",14.0130645999452,57,3,2,"Link out",3,"Good"
13,"Fosvarsspiller","U14",13,"Højre",8,3,"Klip_24\Klip_24_2","switch play2",1.15665110002737,58,3,2,"Link out",3,"Good"
13,"Fosvarsspiller","U14",13,"Højre",8,3,"Klip_93\Klip_93_3","switch play",3.26600539998617,59,3,3,"Switch play to open lines",3,"Best"
13,"Fosvarsspiller","U14",13,"Højre",8,3,"Klip_62\Klip_62_2","switch play2",4.30208639998455,60,3,2,"Link out",3,"Good"
13,"Fosvarsspiller","U14",13,"Højre",8,3,"Klip_75\Klip_75_1","switch play",2.83026429999154,61,3,1,"Highest free man",3,"Good"
13,"Fosvarsspiller","U14",13,"Højre",8,3,"Klip_89\Klip_89_4","false switch play",8.99917660001665,62,3,4,"Pass it over the opponent",7,"Bad"
13,"Fosvarsspiller","U14",13,"Højre",8,3,"Klip_71\Klip_71_3","switch play2",4.88733230007347,63,3,3,"Switch play to open lines",3,"Best"
13,"Fosvarsspiller","U14",13,"Højre",8,3,"Klip_5\Klip_5_1","highest free man",3.26467170007527,64,3,1,"Highest free man",1,"Best"
20,"Fosvarsspiller","U17",15,"Venstre",11,1,"Warmup/Klip_2\Klip_2_2","switch play",14.75069539994,1,5,2,"Link out",3,"Good"
20,"Fosvarsspiller","U17",15,"Venstre",11,1,"Warmup/Klip_3\Klip_3_1","highest free man",17.6465052999556,2,5,1,"Highest free man",1,"Best"
20,"Fosvarsspiller","U17",15,"Venstre",11,1,"Warmup/Klip_1\Klip_1_1","link out",17.3609027999919,3,5,1,"Highest free man",2,"Good"
20,"Fosvarsspiller","U17",15,"Venstre",11,1,"Klip_91\Klip_91_3","switch play2",13.4593162999954,4,5,3,"Switch play to open lines",3,"Best"
20,"Fosvarsspiller","U17",15,"Venstre",11,1,"Klip_30\Klip_30_1","switch play",3.07531650003511,5,5,1,"Highest free man",3,"Good"
20,"Fosvarsspiller","U17",15,"Venstre",11,1,"Klip_55\Klip_55_2","link out",16.7370479000965,6,5,2,"Link out",2,"Best"
20,"Fosvarsspiller","U17",15,"Venstre",11,1,"Klip_93\Klip_93_3","switch play",1.80935210001189,7,5,3,"Switch play to open lines",3,"Best"
20,"Fosvarsspiller","U17",15,"Venstre",11,1,"Klip_83\Klip_83_4","false highest free man",2.88145430001896,8,5,4,"Pass it over the opponent",5,"Bad"
20,"Fosvarsspiller","U17",15,"Venstre",11,1,"Klip_23\Klip_23_2","switch play2",1.42987929994706,9,5,2,"Link out",3,"Good"
20,"Fosvarsspiller","U17",15,"Venstre",11,1,"Klip_22\Klip_22_1","highest free man",3.88652529998217,10,5,1,"Highest free man",1,"Best"
20,"Fosvarsspiller","U17",15,"Venstre",11,1,"Klip_77\Klip_77_2","link out2",3.42825220001396,11,5,2,"Link out",2,"Best"
20,"Fosvarsspiller","U17",15,"Venstre",11,1,"Klip_13\Klip_13_1","highest free man2",1.62713689997327,12,5,1,"Highest free man",1,"Best"
20,"Fosvarsspiller","U17",15,"Venstre",11,1,"Klip_21\Klip_21_2","switch play",10.6782117999392,13,5,2,"Link out",3,"Good"
20,"Fosvarsspiller","U17",15,"Venstre",11,1,"Klip_75\Klip_75_1","highest free man",2.74615150003228,14,5,1,"Highest free man",1,"Best"
20,"Fosvarsspiller","U17",15,"Venstre",11,1,"Klip_43\Klip_43_2","link out",2.5613739999244,15,5,2,"Link out",2,"Best"
20,"Fosvarsspiller","U17",15,"Venstre",11,1,"Klip_80\Klip_80_3","switch play2",10.6863469000673,16,5,3,"Switch play to open lines",3,"Best"
20,"Fosvarsspiller","U17",15,"Venstre",11,1,"Klip_82\Klip_82_4","pass it over",10.7749160999665,17,5,4,"Pass it over the opponent",4,"Best"
20,"Fosvarsspiller","U17",15,"Venstre",11,1,"Klip_14\Klip_14_1","switch play",2.09256729995832,18,5,1,"Highest free man",3,"Good"
20,"Fosvarsspiller","U17",15,"Venstre",11,1,"Klip_65\Klip_65_2","link out",4.71796089992858,19,5,2,"Link out",2,"Best"
20,"Fosvarsspiller","U17",15,"Venstre",11,1,"Klip_24\Klip_24_2","switch play2",2.96036939998157,20,5,2,"Link out",3,"Good"
20,"Fosvarsspiller","U17",15,"Venstre",11,1,"Klip_39\Klip_39_3","switch play",4.67278229992371,21,5,3,"Switch play to open lines",3,"Best"
20,"Fosvarsspiller","U17",15,"Venstre",11,1,"Klip_59\Klip_59_1","highest free man2",3.19173469999805,22,5,1,"Highest free man",1,"Best"
20,"Fosvarsspiller","U17",15,"Venstre",11,1,"Klip_84\Klip_84_4","false switch play",19.2472413000651,23,5,4,"Pass it over the opponent",7,"Bad"
20,"Fosvarsspiller","U17",15,"Venstre",11,1,"Klip_27\Klip_27_1","highest free man",9.48455639998429,24,5,1,"Highest free man",1,"Best"
20,"Fosvarsspiller","U17",15,"Venstre",11,1,"Klip_12\Klip_12_2","link out",2.91066309995949,25,5,2,"Link out",2,"Best"
20,"Fosvarsspiller","U17",15,"Venstre",11,1,"Klip_16\Klip_16_1","switch play",3.4129192000255,26,5,1,"Highest free man",3,"Good"
20,"Fosvarsspiller","U17",15,"Venstre",11,1,"Klip_38\Klip_38_1","switch play",6.92478390003089,27,5,1,"Highest free man",3,"Good"
20,"Fosvarsspiller","U17",15,"Venstre",11,1,"Klip_72\Klip_72_1","highest free man",4.91053240001202,28,5,1,"Highest free man",1,"Best"
20,"Fosvarsspiller","U17",15,"Venstre",11,1,"Klip_90\Klip_90_4","false switch play",2.52032159990631,29,5,4,"Pass it over the opponent",7,"Bad"
20,"Fosvarsspiller","U17",15,"Venstre",11,1,"Klip_45\Klip_45_3","switch play2",4.58237199997529,30,5,3,"Switch play to open lines",3,"Best"
20,"Fosvarsspiller","U17",15,"Venstre",11,1,"Klip_6\Klip_6_1","switch play",8.57807399996091,31,5,1,"Highest free man",3,"Good"
20,"Fosvarsspiller","U17",15,"Venstre",11,1,"Klip_5\Klip_5_1","switch play2",5.57522669993341,32,5,1,"Highest free man",3,"Good"
20,"Fosvarsspiller","U17",15,"Venstre",11,1,"Klip_15\Klip_15_1","highest free man",8.72857000003569,33,5,1,"Highest free man",1,"Best"
20,"Fosvarsspiller","U17",15,"Venstre",11,1,"Klip_92\Klip_92_3","switch play",6.32388260005973,34,5,3,"Switch play to open lines",3,"Best"
20,"Fosvarsspiller","U17",15,"Venstre",11,1,"Klip_17\Klip_17_2","link out",2.21165269997437,35,5,2,"Link out",2,"Best"
20,"Fosvarsspiller","U17",15,"Venstre",11,1,"Klip_62\Klip_62_2","switch play",5.01652350008953,36,5,2,"Link out",3,"Good"
20,"Fosvarsspiller","U17",15,"Venstre",11,1,"Klip_28\Klip_28_3","switch play2",1.75009169999976,37,5,3,"Switch play to open lines",3,"Best"
20,"Fosvarsspiller","U17",15,"Venstre",11,1,"Klip_8\Klip_8_2","link out",3.47137060004752,38,5,2,"Link out",2,"Best"
20,"Fosvarsspiller","U17",15,"Venstre",11,1,"Klip_85\Klip_85_4","false switch play2",2.968222699943,39,5,4,"Pass it over the opponent",7,"Bad"
20,"Fosvarsspiller","U17",15,"Venstre",11,1,"Klip_74\Klip_74_1","highest free man",2.04042719991412,40,5,1,"Highest free man",1,"Best"
20,"Fosvarsspiller","U17",15,"Venstre",11,1,"Klip_86\Klip_86_3","switch play",4.51820930000395,41,5,3,"Switch play to open lines",3,"Best"
20,"Fosvarsspiller","U17",15,"Venstre",11,1,"Klip_87\Klip_87_3","switch play",2.97481420007534,42,5,3,"Switch play to open lines",3,"Best"
20,"Fosvarsspiller","U17",15,"Venstre",11,1,"Klip_89\Klip_89_4","pass it over",5.65626419999171,43,5,4,"Pass it over the opponent",4,"Best"
20,"Fosvarsspiller","U17",15,"Venstre",11,1,"Klip_36\Klip_36_1","switch play",2.83163330005482,44,5,1,"Highest free man",3,"Good"
20,"Fosvarsspiller","U17",15,"Venstre",11,1,"Klip_66\Klip_66_1","highest free man",0.942429800052196,45,5,1,"Highest free man",1,"Best"
20,"Fosvarsspiller","U17",15,"Venstre",11,1,"Klip_94\Klip_94_3","false highest free man",4.0229811000172,46,5,3,"Switch play to open lines",5,"Bad"
20,"Fosvarsspiller","U17",15,"Venstre",11,1,"Klip_32\Klip_32_3","switch play2",2.40562340000179,47,5,3,"Switch play to open lines",3,"Best"
20,"Fosvarsspiller","U17",15,"Venstre",11,1,"Klip_69\Klip_69_2","switch play",12.4045965999831,48,5,2,"Link out",3,"Good"
20,"Fosvarsspiller","U17",15,"Venstre",11,1,"Klip_73\Klip_73_2","switch play",4.18295830010902,49,5,2,"Link out",3,"Good"
20,"Fosvarsspiller","U17",15,"Venstre",11,1,"Klip_64\Klip_64_2","link out",6.66779980005231,50,5,2,"Link out",2,"Best"
20,"Fosvarsspiller","U17",15,"Venstre",11,1,"Klip_78\Klip_78_1","switch play",15.3608086999739,51,5,1,"Highest free man",3,"Good"
20,"Fosvarsspiller","U17",15,"Venstre",11,1,"Klip_58\Klip_58_3","switch play2",4.26401799998712,52,5,3,"Switch play to open lines",3,"Best"
20,"Fosvarsspiller","U17",15,"Venstre",11,1,"Klip_18\Klip_18_3","switch play",1.10016579995863,53,5,3,"Switch play to open lines",3,"Best"
20,"Fosvarsspiller","U17",15,"Venstre",11,1,"Klip_7\Klip_7_1","link out",1.30224119999912,54,5,1,"Highest free man",2,"Good"
20,"Fosvarsspiller","U17",15,"Venstre",11,1,"Klip_26\Klip_26_1","switch play",2.05140400002711,55,5,1,"Highest free man",3,"Good"
20,"Fosvarsspiller","U17",15,"Venstre",11,1,"Klip_10\Klip_10_1","link out",1.94869710004423,56,5,1,"Highest free man",2,"Good"
20,"Fosvarsspiller","U17",15,"Venstre",11,1,"Klip_35\Klip_35_1","highest free man",2.48624860006385,57,5,1,"Highest free man",1,"Best"
20,"Fosvarsspiller","U17",15,"Venstre",11,1,"Klip_88\Klip_88_4","pass it over",11.1726466000546,58,5,4,"Pass it over the opponent",4,"Best"
20,"Fosvarsspiller","U17",15,"Venstre",11,1,"Klip_60\Klip_60_3","switch play2",2.83237970003393,59,5,3,"Switch play to open lines",3,"Best"
20,"Fosvarsspiller","U17",15,"Venstre",11,1,"Klip_33\Klip_33_1","highest free man",7.12944569997489,60,5,1,"Highest free man",1,"Best"
20,"Fosvarsspiller","U17",15,"Venstre",11,1,"Klip_70\Klip_70_1","highest free man",1.12746259989217,61,5,1,"Highest free man",1,"Best"
20,"Fosvarsspiller","U17",15,"Venstre",11,1,"Klip_71\Klip_71_3","switch play2",9.26798670005519,62,5,3,"Switch play to open lines",3,"Best"
20,"Fosvarsspiller","U17",15,"Venstre",11,1,"Klip_57\Klip_57_2","switch play2",4.21811450005043,63,5,2,"Link out",3,"Good"
20,"Fosvarsspiller","U17",15,"Venstre",11,1,"Klip_81\Klip_81_4","pass it over",3.41824909998104,64,5,4,"Pass it over the opponent",4,"Best"
25,"Fosvarsspiller","U17",14,"Højre",9,4,"Warmup/Klip_2\Klip_2_2","pass it over",12.5974291000748,1,6,2,"Link out",4,"Good"
25,"Fosvarsspiller","U17",14,"Højre",9,4,"Warmup/Klip_1\Klip_1_1","highest free man",14.3267868999392,2,6,1,"Highest free man",1,"Best"
25,"Fosvarsspiller","U17",14,"Højre",9,4,"Warmup/Klip_3\Klip_3_1","highest free man",10.345915599959,3,6,1,"Highest free man",1,"Best"
25,"Fosvarsspiller","U17",14,"Højre",9,4,"Klip_16\Klip_16_1","switch play",6.77146560000256,4,6,1,"Highest free man",3,"Good"
25,"Fosvarsspiller","U17",14,"Højre",9,4,"Klip_93\Klip_93_3","false highest free man2",19.0930373000447,5,6,3,"Switch play to open lines",5,"Bad"
25,"Fosvarsspiller","U17",14,"Højre",9,4,"Klip_69\Klip_69_2","link out",11.2081304000458,6,6,2,"Link out",2,"Best"
25,"Fosvarsspiller","U17",14,"Højre",9,4,"Klip_14\Klip_14_1","switch play2",23.2633519000374,7,6,1,"Highest free man",3,"Good"
25,"Fosvarsspiller","U17",14,"Højre",9,4,"Klip_58\Klip_58_3","switch play2",7.70704899996053,8,6,3,"Switch play to open lines",3,"Best"
25,"Fosvarsspiller","U17",14,"Højre",9,4,"Klip_74\Klip_74_1","pass it over",17.4429231999675,9,6,1,"Highest free man",4,"Good"
25,"Fosvarsspiller","U17",14,"Højre",9,4,"Klip_7\Klip_7_1","link out",4.96896540001035,10,6,1,"Highest free man",2,"Good"
25,"Fosvarsspiller","U17",14,"Højre",9,4,"Klip_86\Klip_86_3","switch play",9.6096036999952,11,6,3,"Switch play to open lines",3,"Best"
25,"Fosvarsspiller","U17",14,"Højre",9,4,"Klip_64\Klip_64_2","link out",34.6452753000194,12,6,2,"Link out",2,"Best"
25,"Fosvarsspiller","U17",14,"Højre",9,4,"Klip_88\Klip_88_4","false switch play",12.8113665999845,13,6,4,"Pass it over the opponent",7,"Bad"
25,"Fosvarsspiller","U17",14,"Højre",9,4,"Klip_23\Klip_23_2","switch play",17.2632371999789,14,6,2,"Link out",3,"Good"
25,"Fosvarsspiller","U17",14,"Højre",9,4,"Klip_78\Klip_78_1","pass it over",56.0404353999766,15,6,1,"Highest free man",4,"Good"
25,"Fosvarsspiller","U17",14,"Højre",9,4,"Klip_72\Klip_72_1","highest free man2",15.3829426999437,16,6,1,"Highest free man",1,"Best"
25,"Fosvarsspiller","U17",14,"Højre",9,4,"Klip_10\Klip_10_1","link out",7.59041930001695,17,6,1,"Highest free man",2,"Good"
25,"Fosvarsspiller","U17",14,"Højre",9,4,"Klip_87\Klip_87_3","switch play",14.9403050000547,18,6,3,"Switch play to open lines",3,"Best"
25,"Fosvarsspiller","U17",14,"Højre",9,4,"Klip_24\Klip_24_2","switch play2",20.8917708999943,19,6,2,"Link out",3,"Good"
25,"Fosvarsspiller","U17",14,"Højre",9,4,"Klip_80\Klip_80_3","switch play2",16.3808241999941,20,6,3,"Switch play to open lines",3,"Best"
25,"Fosvarsspiller","U17",14,"Højre",9,4,"Klip_70\Klip_70_1","highest free man",4.68867960001808,21,6,1,"Highest free man",1,"Best"
25,"Fosvarsspiller","U17",14,"Højre",9,4,"Klip_8\Klip_8_2","link out",15.1491821000818,22,6,2,"Link out",2,"Best"
25,"Fosvarsspiller","U17",14,"Højre",9,4,"Klip_21\Klip_21_2","false highest free man",17.3879519000184,23,6,2,"Link out",5,"Bad"
25,"Fosvarsspiller","U17",14,"Højre",9,4,"Klip_12\Klip_12_2","switch play",12.149629099993,24,6,2,"Link out",3,"Good"
25,"Fosvarsspiller","U17",14,"Højre",9,4,"Klip_22\Klip_22_1","highest free man",11.1589891000185,25,6,1,"Highest free man",1,"Best"
25,"Fosvarsspiller","U17",14,"Højre",9,4,"Klip_18\Klip_18_3","switch play",24.1793280000566,26,6,3,"Switch play to open lines",3,"Best"
25,"Fosvarsspiller","U17",14,"Højre",9,4,"Klip_6\Klip_6_1","link out",21.0584560999414,27,6,1,"Highest free man",2,"Good"
25,"Fosvarsspiller","U17",14,"Højre",9,4,"Klip_30\Klip_30_1","switch play",6.20162469998468,28,6,1,"Highest free man",3,"Good"
25,"Fosvarsspiller","U17",14,"Højre",9,4,"Klip_35\Klip_35_1","highest free man",5.77482319995761,29,6,1,"Highest free man",1,"Best"
25,"Fosvarsspiller","U17",14,"Højre",9,4,"Klip_15\Klip_15_1","pass it over",21.0330713000149,30,6,1,"Highest free man",4,"Good"
25,"Fosvarsspiller","U17",14,"Højre",9,4,"Klip_55\Klip_55_2","pass it over",33.7727365000173,31,6,2,"Link out",4,"Good"
25,"Fosvarsspiller","U17",14,"Højre",9,4,"Klip_77\Klip_77_2","link out2",11.1337346000364,32,6,2,"Link out",2,"Best"
25,"Fosvarsspiller","U17",14,"Højre",9,4,"Klip_84\Klip_84_4","false switch play",15.1097890000092,33,6,4,"Pass it over the opponent",7,"Bad"
25,"Fosvarsspiller","U17",14,"Højre",9,4,"Klip_13\Klip_13_1","highest free man",8.01218220009468,34,6,1,"Highest free man",1,"Best"
25,"Fosvarsspiller","U17",14,"Højre",9,4,"Klip_38\Klip_38_1","highest free man",4.43897940008901,35,6,1,"Highest free man",1,"Best"
25,"Fosvarsspiller","U17",14,"Højre",9,4,"Klip_5\Klip_5_1","switch play",26.3591353000375,36,6,1,"Highest free man",3,"Good"
25,"Fosvarsspiller","U17",14,"Højre",9,4,"Klip_27\Klip_27_1","highest free man2",15.199765300029,37,6,1,"Highest free man",1,"Best"
25,"Fosvarsspiller","U17",14,"Højre",9,4,"Klip_81\Klip_81_4","pass it over",27.3777790999738,38,6,4,"Pass it over the opponent",4,"Best"
25,"Fosvarsspiller","U17",14,"Højre",9,4,"Klip_33\Klip_33_1","highest free man",13.9239958000835,39,6,1,"Highest free man",1,"Best"
25,"Fosvarsspiller","U17",14,"Højre",9,4,"Klip_43\Klip_43_2","switch play",15.1861784999492,40,6,2,"Link out",3,"Good"
25,"Fosvarsspiller","U17",14,"Højre",9,4,"Klip_60\Klip_60_3","switch play",16.9227139999857,41,6,3,"Switch play to open lines",3,"Best"
25,"Fosvarsspiller","U17",14,"Højre",9,4,"Klip_39\Klip_39_3","switch play",14.8552912999876,42,6,3,"Switch play to open lines",3,"Best"
25,"Fosvarsspiller","U17",14,"Højre",9,4,"Klip_73\Klip_73_2","switch play",6.3240330000408,43,6,2,"Link out",3,"Good"
25,"Fosvarsspiller","U17",14,"Højre",9,4,"Klip_90\Klip_90_4","pass it over",25.1973903999897,44,6,4,"Pass it over the opponent",4,"Best"
25,"Fosvarsspiller","U17",14,"Højre",9,4,"Klip_36\Klip_36_1","switch play",7.54448350006714,45,6,1,"Highest free man",3,"Good"
25,"Fosvarsspiller","U17",14,"Højre",9,4,"Klip_82\Klip_82_4","false link out",8.44478200003505,46,6,4,"Pass it over the opponent",6,"Bad"
25,"Fosvarsspiller","U17",14,"Højre",9,4,"Klip_85\Klip_85_4","pass it over",5.04524579993449,47,6,4,"Pass it over the opponent",4,"Best"
25,"Fosvarsspiller","U17",14,"Højre",9,4,"Klip_92\Klip_92_3","false link out",15.0744320000522,48,6,3,"Switch play to open lines",6,"Bad"
25,"Fosvarsspiller","U17",14,"Højre",9,4,"Klip_91\Klip_91_3","false link out",17.4166370999301,49,6,3,"Switch play to open lines",6,"Bad"
25,"Fosvarsspiller","U17",14,"Højre",9,4,"Klip_65\Klip_65_2","switch play",10.57550669997,50,6,2,"Link out",3,"Good"
25,"Fosvarsspiller","U17",14,"Højre",9,4,"Klip_59\Klip_59_1","highest free man2",7.4585209999932,51,6,1,"Highest free man",1,"Best"
25,"Fosvarsspiller","U17",14,"Højre",9,4,"Klip_66\Klip_66_1","highest free man",17.8174178999616,52,6,1,"Highest free man",1,"Best"
25,"Fosvarsspiller","U17",14,"Højre",9,4,"Klip_28\Klip_28_3","switch play",3.81393760000356,53,6,3,"Switch play to open lines",3,"Best"
25,"Fosvarsspiller","U17",14,"Højre",9,4,"Klip_45\Klip_45_3","switch play2",7.23557919997256,54,6,3,"Switch play to open lines",3,"Best"
25,"Fosvarsspiller","U17",14,"Højre",9,4,"Klip_57\Klip_57_2","switch play2",10.7932845000178,55,6,2,"Link out",3,"Good"
25,"Fosvarsspiller","U17",14,"Højre",9,4,"Klip_75\Klip_75_1","false pass it over",5.77366780000739,56,6,1,"Highest free man",8,"Bad"
25,"Fosvarsspiller","U17",14,"Højre",9,4,"Klip_26\Klip_26_1","highest free man",4.42715969996061,57,6,1,"Highest free man",1,"Best"
25,"Fosvarsspiller","U17",14,"Højre",9,4,"Klip_83\Klip_83_4","pass it over",5.21335169998929,58,6,4,"Pass it over the opponent",4,"Best"
25,"Fosvarsspiller","U17",14,"Højre",9,4,"Klip_32\Klip_32_3","false highest free man",21.7399696999928,59,6,3,"Switch play to open lines",5,"Bad"
25,"Fosvarsspiller","U17",14,"Højre",9,4,"Klip_89\Klip_89_4","pass it over",14.3517252999591,60,6,4,"Pass it over the opponent",4,"Best"
25,"Fosvarsspiller","U17",14,"Højre",9,4,"Klip_62\Klip_62_2","switch play",3.13501169998199,61,6,2,"Link out",3,"Good"
25,"Fosvarsspiller","U17",14,"Højre",9,4,"Klip_94\Klip_94_3","switch play",13.4967082999647,62,6,3,"Switch play to open lines",3,"Best"
25,"Fosvarsspiller","U17",14,"Højre",9,4,"Klip_71\Klip_71_3","switch play",13.7017740000738,63,6,3,"Switch play to open lines",3,"Best"
25,"Fosvarsspiller","U17",14,"Højre",9,4,"Klip_17\Klip_17_2","link out",6.63930609996896,64,6,2,"Link out",2,"Best"
3,"Fosvarsspiller","U13",12,"Højre",6,1,"Warmup/Klip_3\Klip_3_1","highest free man",18.0946740000509,1,1,1,"Highest free man",1,"Best"
3,"Fosvarsspiller","U13",12,"Højre",6,1,"Warmup/Klip_2\Klip_2_2","switch play",7.34519399993587,2,1,2,"Link out",3,"Good"
3,"Fosvarsspiller","U13",12,"Højre",6,1,"Warmup/Klip_1\Klip_1_1","false link out",26.2753494998906,3,1,1,"Highest free man",6,"Bad"
3,"Fosvarsspiller","U13",12,"Højre",6,1,"Klip_86\Klip_86_3","switch play",7.53682680008933,4,1,3,"Switch play to open lines",3,"Best"
3,"Fosvarsspiller","U13",12,"Højre",6,1,"Klip_24\Klip_24_2","switch play",4.38307219999842,5,1,2,"Link out",3,"Good"
3,"Fosvarsspiller","U13",12,"Højre",6,1,"Klip_8\Klip_8_2","link out",11.1023917000275,6,1,2,"Link out",2,"Best"
3,"Fosvarsspiller","U13",12,"Højre",6,1,"Klip_72\Klip_72_1","switch play",5.82243469997775,7,1,1,"Highest free man",3,"Good"
3,"Fosvarsspiller","U13",12,"Højre",6,1,"Klip_45\Klip_45_3","switch play2",11.4661071000155,8,1,3,"Switch play to open lines",3,"Best"
3,"Fosvarsspiller","U13",12,"Højre",6,1,"Klip_58\Klip_58_3","switch play2",4.54426230001263,9,1,3,"Switch play to open lines",3,"Best"
3,"Fosvarsspiller","U13",12,"Højre",6,1,"Klip_14\Klip_14_1","switch play2",9.31555870000739,10,1,1,"Highest free man",3,"Good"
3,"Fosvarsspiller","U13",12,"Højre",6,1,"Klip_60\Klip_60_3","false link out",14.0759098000126,11,1,3,"Switch play to open lines",6,"Bad"
3,"Fosvarsspiller","U13",12,"Højre",6,1,"Klip_12\Klip_12_2","switch play",14.5935792000964,12,1,2,"Link out",3,"Good"
3,"Fosvarsspiller","U13",12,"Højre",6,1,"Klip_84\Klip_84_4","false switch play",7.54898869991302,13,1,4,"Pass it over the opponent",7,"Bad"
3,"Fosvarsspiller","U13",12,"Højre",6,1,"Klip_32\Klip_32_3","false highest free man",13.3608394999756,14,1,3,"Switch play to open lines",5,"Bad"
3,"Fosvarsspiller","U13",12,"Højre",6,1,"Klip_71\Klip_71_3","switch play",14.7032114999602,15,1,3,"Switch play to open lines",3,"Best"
3,"Fosvarsspiller","U13",12,"Højre",6,1,"Klip_43\Klip_43_2","switch play",8.85458179994021,16,1,2,"Link out",3,"Good"
3,"Fosvarsspiller","U13",12,"Højre",6,1,"Klip_28\Klip_28_3","switch play2",8.41683080000803,17,1,3,"Switch play to open lines",3,"Best"
3,"Fosvarsspiller","U13",12,"Højre",6,1,"Klip_38\Klip_38_1","highest free man",10.7789363999618,18,1,1,"Highest free man",1,"Best"
3,"Fosvarsspiller","U13",12,"Højre",6,1,"Klip_57\Klip_57_2","switch play",7.99007900001016,19,1,2,"Link out",3,"Good"
3,"Fosvarsspiller","U13",12,"Højre",6,1,"Klip_83\Klip_83_4","false highest free man",3.86633400002029,20,1,4,"Pass it over the opponent",5,"Bad"
3,"Fosvarsspiller","U13",12,"Højre",6,1,"Klip_23\Klip_23_2","switch play",11.1023497000569,21,1,2,"Link out",3,"Good"
3,"Fosvarsspiller","U13",12,"Højre",6,1,"Klip_89\Klip_89_4","false highest free man",17.6584326000884,22,1,4,"Pass it over the opponent",5,"Bad"
3,"Fosvarsspiller","U13",12,"Højre",6,1,"Klip_15\Klip_15_1","highest free man",6.22728900006041,23,1,1,"Highest free man",1,"Best"
3,"Fosvarsspiller","U13",12,"Højre",6,1,"Klip_5\Klip_5_1","highest free man",7.4028889000183,24,1,1,"Highest free man",1,"Best"
3,"Fosvarsspiller","U13",12,"Højre",6,1,"Klip_75\Klip_75_1","false pass it over",15.354086700012,25,1,1,"Highest free man",8,"Bad"
3,"Fosvarsspiller","U13",12,"Højre",6,1,"Klip_92\Klip_92_3","false link out",17.7867187999655,26,1,3,"Switch play to open lines",6,"Bad"
3,"Fosvarsspiller","U13",12,"Højre",6,1,"Klip_62\Klip_62_2","switch play2",10.0981125000399,27,1,2,"Link out",3,"Good"
3,"Fosvarsspiller","U13",12,"Højre",6,1,"Klip_17\Klip_17_2","link out",6.30378449999262,28,1,2,"Link out",2,"Best"
3,"Fosvarsspiller","U13",12,"Højre",6,1,"Klip_77\Klip_77_2","link out2",3.52281520003453,29,1,2,"Link out",2,"Best"
3,"Fosvarsspiller","U13",12,"Højre",6,1,"Klip_91\Klip_91_3","switch play2",7.7219973000465,30,1,3,"Switch play to open lines",3,"Best"
3,"Fosvarsspiller","U13",12,"Højre",6,1,"Klip_65\Klip_65_2","switch play",7.99805629998446,31,1,2,"Link out",3,"Good"
3,"Fosvarsspiller","U13",12,"Højre",6,1,"Klip_13\Klip_13_1","highest free man2",7.60085389995947,32,1,1,"Highest free man",1,"Best"
3,"Fosvarsspiller","U13",12,"Højre",6,1,"Klip_21\Klip_21_2","switch play",7.69832040008623,33,1,2,"Link out",3,"Good"
3,"Fosvarsspiller","U13",12,"Højre",6,1,"Klip_39\Klip_39_3","switch play2",6.95460409997031,34,1,3,"Switch play to open lines",3,"Best"
3,"Fosvarsspiller","U13",12,"Højre",6,1,"Klip_59\Klip_59_1","highest free man2",12.9724291000748,35,1,1,"Highest free man",1,"Best"
3,"Fosvarsspiller","U13",12,"Højre",6,1,"Klip_30\Klip_30_1","switch play",5.7258998999605,36,1,1,"Highest free man",3,"Good"
3,"Fosvarsspiller","U13",12,"Højre",6,1,"Klip_64\Klip_64_2","switch play",16.2717254000017,37,1,2,"Link out",3,"Good"
3,"Fosvarsspiller","U13",12,"Højre",6,1,"Klip_26\Klip_26_1","highest free man",5.59521399997175,38,1,1,"Highest free man",1,"Best"
3,"Fosvarsspiller","U13",12,"Højre",6,1,"Klip_85\Klip_85_4","pass it over",14.4366251999745,39,1,4,"Pass it over the opponent",4,"Best"
3,"Fosvarsspiller","U13",12,"Højre",6,1,"Klip_27\Klip_27_1","highest free man2",19.2412220999831,40,1,1,"Highest free man",1,"Best"
3,"Fosvarsspiller","U13",12,"Højre",6,1,"Klip_55\Klip_55_2","link out",18.8847419000231,41,1,2,"Link out",2,"Best"
3,"Fosvarsspiller","U13",12,"Højre",6,1,"Klip_88\Klip_88_4","false switch play",5.894281799905,42,1,4,"Pass it over the opponent",7,"Bad"
3,"Fosvarsspiller","U13",12,"Højre",6,1,"Klip_80\Klip_80_3","switch play2",3.72511750005651,43,1,3,"Switch play to open lines",3,"Best"
3,"Fosvarsspiller","U13",12,"Højre",6,1,"Klip_93\Klip_93_3","switch play",3.13191830005962,44,1,3,"Switch play to open lines",3,"Best"
3,"Fosvarsspiller","U13",12,"Højre",6,1,"Klip_7\Klip_7_1","link out",3.96171689999755,45,1,1,"Highest free man",2,"Good"
3,"Fosvarsspiller","U13",12,"Højre",6,1,"Klip_78\Klip_78_1","link out",12.7698464000132,46,1,1,"Highest free man",2,"Good"
3,"Fosvarsspiller","U13",12,"Højre",6,1,"Klip_74\Klip_74_1","highest free man",4.56518639996648,47,1,1,"Highest free man",1,"Best"
3,"Fosvarsspiller","U13",12,"Højre",6,1,"Klip_16\Klip_16_1","switch play",3.73309019999579,48,1,1,"Highest free man",3,"Good"
3,"Fosvarsspiller","U13",12,"Højre",6,1,"Klip_82\Klip_82_4","pass it over",8.08891459996812,49,1,4,"Pass it over the opponent",4,"Best"
3,"Fosvarsspiller","U13",12,"Højre",6,1,"Klip_35\Klip_35_1","highest free man",4.33670570002869,50,1,1,"Highest free man",1,"Best"
3,"Fosvarsspiller","U13",12,"Højre",6,1,"Klip_22\Klip_22_1","switch play",2.58272100007161,51,1,1,"Highest free man",3,"Good"
3,"Fosvarsspiller","U13",12,"Højre",6,1,"Klip_69\Klip_69_2","false highest free man",13.2688902000664,52,1,2,"Link out",5,"Bad"
3,"Fosvarsspiller","U13",12,"Højre",6,1,"Klip_90\Klip_90_4","false link out2",7.76013700000476,53,1,4,"Pass it over the opponent",6,"Bad"
3,"Fosvarsspiller","U13",12,"Højre",6,1,"Klip_36\Klip_36_1","switch play",6.07066159998067,54,1,1,"Highest free man",3,"Good"
3,"Fosvarsspiller","U13",12,"Højre",6,1,"Klip_18\Klip_18_3","switch play",14.0952031998895,55,1,3,"Switch play to open lines",3,"Best"
3,"Fosvarsspiller","U13",12,"Højre",6,1,"Klip_94\Klip_94_3","switch play",13.7192045999691,56,1,3,"Switch play to open lines",3,"Best"
3,"Fosvarsspiller","U13",12,"Højre",6,1,"Klip_73\Klip_73_2","switch play2",4.19005430000834,57,1,2,"Link out",3,"Good"
3,"Fosvarsspiller","U13",12,"Højre",6,1,"Klip_81\Klip_81_4","pass it over",7.01197580003645,58,1,4,"Pass it over the opponent",4,"Best"
3,"Fosvarsspiller","U13",12,"Højre",6,1,"Klip_10\Klip_10_1","highest free man",3.20827329996973,59,1,1,"Highest free man",1,"Best"
3,"Fosvarsspiller","U13",12,"Højre",6,1,"Klip_6\Klip_6_1","link out",4.82440559996758,60,1,1,"Highest free man",2,"Good"
3,"Fosvarsspiller","U13",12,"Højre",6,1,"Klip_70\Klip_70_1","switch play",1.92371409991756,61,1,1,"Highest free man",3,"Good"
3,"Fosvarsspiller","U13",12,"Højre",6,1,"Klip_66\Klip_66_1","highest free man",2.70013500005007,62,1,1,"Highest free man",1,"Best"
3,"Fosvarsspiller","U13",12,"Højre",6,1,"Klip_87\Klip_87_3","false switch play",5.16864670009818,63,1,3,"Switch play to open lines",7,"Bad"
3,"Fosvarsspiller","U13",12,"Højre",6,1,"Klip_33\Klip_33_1","highest free man",3.8495583999902,64,1,1,"Highest free man",1,"Best"
3,"Fosvarsspiller","U14",13,"Højre",10,2,"Warmup/Klip_2\Klip_2_2","link out",21.1096470999764,1,4,2,"Link out",2,"Best"
3,"Fosvarsspiller","U14",13,"Højre",10,2,"Warmup/Klip_1\Klip_1_1","link out",11.6893534000264,2,4,1,"Highest free man",2,"Good"
3,"Fosvarsspiller","U14",13,"Højre",10,2,"Warmup/Klip_3\Klip_3_1","highest free man",5.82999390002806,3,4,1,"Highest free man",1,"Best"
3,"Fosvarsspiller","U14",13,"Højre",10,2,"Klip_85\Klip_85_4","pass it over",12.5165570999961,4,4,4,"Pass it over the opponent",4,"Best"
3,"Fosvarsspiller","U14",13,"Højre",10,2,"Klip_62\Klip_62_2","switch play2",17.0356784999603,5,4,2,"Link out",3,"Good"
3,"Fosvarsspiller","U14",13,"Højre",10,2,"Klip_59\Klip_59_1","highest free man2",22.9721989999525,6,4,1,"Highest free man",1,"Best"
3,"Fosvarsspiller","U14",13,"Højre",10,2,"Klip_8\Klip_8_2","switch play",12.0889018999878,7,4,2,"Link out",3,"Good"
3,"Fosvarsspiller","U14",13,"Højre",10,2,"Klip_69\Klip_69_2","switch play",23.5348387999693,8,4,2,"Link out",3,"Good"
3,"Fosvarsspiller","U14",13,"Højre",10,2,"Klip_23\Klip_23_2","switch play2",11.2873921999708,9,4,2,"Link out",3,"Good"
3,"Fosvarsspiller","U14",13,"Højre",10,2,"Klip_39\Klip_39_3","switch play",5.82496740005445,10,4,3,"Switch play to open lines",3,"Best"
3,"Fosvarsspiller","U14",13,"Højre",10,2,"Klip_70\Klip_70_1","highest free man",6.10504749999382,11,4,1,"Highest free man",1,"Best"
3,"Fosvarsspiller","U14",13,"Højre",10,2,"Klip_81\Klip_81_4","pass it over",11.1015619999962,12,4,4,"Pass it over the opponent",4,"Best"
3,"Fosvarsspiller","U14",13,"Højre",10,2,"Klip_10\Klip_10_1","link out",5.05844839999918,13,4,1,"Highest free man",2,"Good"
3,"Fosvarsspiller","U14",13,"Højre",10,2,"Klip_27\Klip_27_1","highest free man2",4.57624539989047,14,4,1,"Highest free man",1,"Best"
3,"Fosvarsspiller","U14",13,"Højre",10,2,"Klip_80\Klip_80_3","switch play2",8.18486989999656,15,4,3,"Switch play to open lines",3,"Best"
3,"Fosvarsspiller","U14",13,"Højre",10,2,"Klip_21\Klip_21_2","switch play",18.2381809999933,16,4,2,"Link out",3,"Good"
3,"Fosvarsspiller","U14",13,"Højre",10,2,"Klip_55\Klip_55_2","link out",12.3045949999942,17,4,2,"Link out",2,"Best"
3,"Fosvarsspiller","U14",13,"Højre",10,2,"Klip_13\Klip_13_1","highest free man2",19.003774199984,18,4,1,"Highest free man",1,"Best"
3,"Fosvarsspiller","U14",13,"Højre",10,2,"Klip_71\Klip_71_3","switch play",10.4923624999356,19,4,3,"Switch play to open lines",3,"Best"
3,"Fosvarsspiller","U14",13,"Højre",10,2,"Klip_32\Klip_32_3","false highest free man",20.4467102999333,20,4,3,"Switch play to open lines",5,"Bad"
3,"Fosvarsspiller","U14",13,"Højre",10,2,"Klip_92\Klip_92_3","switch play2",8.97541950002778,21,4,3,"Switch play to open lines",3,"Best"
3,"Fosvarsspiller","U14",13,"Højre",10,2,"Klip_30\Klip_30_1","switch play",4.342010299908,22,4,1,"Highest free man",3,"Good"
3,"Fosvarsspiller","U14",13,"Højre",10,2,"Klip_38\Klip_38_1","highest free man",7.40672339999583,23,4,1,"Highest free man",1,"Best"
3,"Fosvarsspiller","U14",13,"Højre",10,2,"Klip_88\Klip_88_4","false highest free man",24.422156500048,24,4,4,"Pass it over the opponent",5,"Bad"
3,"Fosvarsspiller","U14",13,"Højre",10,2,"Klip_84\Klip_84_4","false link out",11.6117694999557,25,4,4,"Pass it over the opponent",6,"Bad"
3,"Fosvarsspiller","U14",13,"Højre",10,2,"Klip_22\Klip_22_1","highest free man",13.9497699999483,26,4,1,"Highest free man",1,"Best"
3,"Fosvarsspiller","U14",13,"Højre",10,2,"Klip_65\Klip_65_2","switch play",12.9614479000447,27,4,2,"Link out",3,"Good"
3,"Fosvarsspiller","U14",13,"Højre",10,2,"Klip_43\Klip_43_2","pass it over",6.81843039998785,28,4,2,"Link out",4,"Good"
3,"Fosvarsspiller","U14",13,"Højre",10,2,"Klip_93\Klip_93_3","switch play",6.49365279998165,29,4,3,"Switch play to open lines",3,"Best"
3,"Fosvarsspiller","U14",13,"Højre",10,2,"Klip_5\Klip_5_1","switch play2",8.19047069991939,30,4,1,"Highest free man",3,"Good"
3,"Fosvarsspiller","U14",13,"Højre",10,2,"Klip_28\Klip_28_3","switch play2",15.6634309999645,31,4,3,"Switch play to open lines",3,"Best"
3,"Fosvarsspiller","U14",13,"Højre",10,2,"Klip_82\Klip_82_4","pass it over",5.18690900004003,32,4,4,"Pass it over the opponent",4,"Best"
3,"Fosvarsspiller","U14",13,"Højre",10,2,"Klip_33\Klip_33_1","highest free man",3.78205649997108,33,4,1,"Highest free man",1,"Best"
3,"Fosvarsspiller","U14",13,"Højre",10,2,"Klip_94\Klip_94_3","switch play",5.19619599997532,34,4,3,"Switch play to open lines",3,"Best"
3,"Fosvarsspiller","U14",13,"Højre",10,2,"Klip_77\Klip_77_2","link out2",5.92873439996038,35,4,2,"Link out",2,"Best"
3,"Fosvarsspiller","U14",13,"Højre",10,2,"Klip_35\Klip_35_1","highest free man",4.52230149996467,36,4,1,"Highest free man",1,"Best"
3,"Fosvarsspiller","U14",13,"Højre",10,2,"Klip_83\Klip_83_4","pass it over",6.43189609993715,37,4,4,"Pass it over the opponent",4,"Best"
3,"Fosvarsspiller","U14",13,"Højre",10,2,"Klip_75\Klip_75_1","false pass it over",6.71542679995764,38,4,1,"Highest free man",8,"Bad"
3,"Fosvarsspiller","U14",13,"Højre",10,2,"Klip_57\Klip_57_2","false link out",17.7772232999559,39,4,2,"Link out",6,"Bad"
3,"Fosvarsspiller","U14",13,"Højre",10,2,"Klip_89\Klip_89_4","false switch play",5.27248110005166,40,4,4,"Pass it over the opponent",7,"Bad"
3,"Fosvarsspiller","U14",13,"Højre",10,2,"Klip_36\Klip_36_1","switch play",2.2138650000561,41,4,1,"Highest free man",3,"Good"
3,"Fosvarsspiller","U14",13,"Højre",10,2,"Klip_74\Klip_74_1","highest free man",7.08557100000326,42,4,1,"Highest free man",1,"Best"
3,"Fosvarsspiller","U14",13,"Højre",10,2,"Klip_17\Klip_17_2","link out",4.44398310000543,43,4,2,"Link out",2,"Best"
3,"Fosvarsspiller","U14",13,"Højre",10,2,"Klip_45\Klip_45_3","switch play2",5.41601849999279,44,4,3,"Switch play to open lines",3,"Best"
3,"Fosvarsspiller","U14",13,"Højre",10,2,"Klip_15\Klip_15_1","pass it over",11.1122114000609,45,4,1,"Highest free man",4,"Good"
3,"Fosvarsspiller","U14",13,"Højre",10,2,"Klip_78\Klip_78_1","link out",11.1581534999423,46,4,1,"Highest free man",2,"Good"
3,"Fosvarsspiller","U14",13,"Højre",10,2,"Klip_72\Klip_72_1","switch play",7.14671740005724,47,4,1,"Highest free man",3,"Good"
3,"Fosvarsspiller","U14",13,"Højre",10,2,"Klip_91\Klip_91_3","false link out",12.8673431000207,48,4,3,"Switch play to open lines",6,"Bad"
3,"Fosvarsspiller","U14",13,"Højre",10,2,"Klip_64\Klip_64_2","switch play",5.04732560005505,49,4,2,"Link out",3,"Good"
3,"Fosvarsspiller","U14",13,"Højre",10,2,"Klip_14\Klip_14_1","switch play2",5.70630459999666,50,4,1,"Highest free man",3,"Good"
3,"Fosvarsspiller","U14",13,"Højre",10,2,"Klip_90\Klip_90_4","pass it over",6.79459040006623,51,4,4,"Pass it over the opponent",4,"Best"
3,"Fosvarsspiller","U14",13,"Højre",10,2,"Klip_86\Klip_86_3","switch play",6.85249380010646,52,4,3,"Switch play to open lines",3,"Best"
3,"Fosvarsspiller","U14",13,"Højre",10,2,"Klip_60\Klip_60_3","switch play",13.7337505000178,53,4,3,"Switch play to open lines",3,"Best"
3,"Fosvarsspiller","U14",13,"Højre",10,2,"Klip_58\Klip_58_3","switch play2",17.0359909000108,54,4,3,"Switch play to open lines",3,"Best"
3,"Fosvarsspiller","U14",13,"Højre",10,2,"Klip_26\Klip_26_1","highest free man",7.3442914999323,55,4,1,"Highest free man",1,"Best"
3,"Fosvarsspiller","U14",13,"Højre",10,2,"Klip_6\Klip_6_1","link out2",10.3051976000424,56,4,1,"Highest free man",2,"Good"
3,"Fosvarsspiller","U14",13,"Højre",10,2,"Klip_12\Klip_12_2","link out",9.33988970005885,57,4,2,"Link out",2,"Best"
3,"Fosvarsspiller","U14",13,"Højre",10,2,"Klip_73\Klip_73_2","switch play2",5.09627510001883,58,4,2,"Link out",3,"Good"
3,"Fosvarsspiller","U14",13,"Højre",10,2,"Klip_18\Klip_18_3","switch play",20.4415228000144,59,4,3,"Switch play to open lines",3,"Best"
3,"Fosvarsspiller","U14",13,"Højre",10,2,"Klip_16\Klip_16_1","highest free man",8.50305000005756,60,4,1,"Highest free man",1,"Best"
3,"Fosvarsspiller","U14",13,"Højre",10,2,"Klip_66\Klip_66_1","false link out",12.8930005000439,61,4,1,"Highest free man",6,"Bad"
3,"Fosvarsspiller","U14",13,"Højre",10,2,"Klip_87\Klip_87_3","false switch play",6.0753829999594,62,4,3,"Switch play to open lines",7,"Bad"
3,"Fosvarsspiller","U14",13,"Højre",10,2,"Klip_24\Klip_24_2","switch play2",4.21573940000962,63,4,2,"Link out",3,"Good"
3,"Fosvarsspiller","U14",13,"Højre",10,2,"Klip_7\Klip_7_1","link out",2.46620549994987,64,4,1,"Highest free man",2,"Good"
3,"Fosvarsspiller","U17",16,"Højre",9,4,"Warmup/Klip_3\Klip_3_1","highest free man",12.4143786000786,1,7,1,"Highest free man",1,"Best"
3,"Fosvarsspiller","U17",16,"Højre",9,4,"Warmup/Klip_1\Klip_1_1","highest free man",18.7560593999224,2,7,1,"Highest free man",1,"Best"
3,"Fosvarsspiller","U17",16,"Højre",9,4,"Warmup/Klip_2\Klip_2_2","link out",9.85303220001515,3,7,2,"Link out",2,"Best"
3,"Fosvarsspiller","U17",16,"Højre",9,4,"Klip_66\Klip_66_1","switch play2",18.8610503999516,4,7,1,"Highest free man",3,"Good"
3,"Fosvarsspiller","U17",16,"Højre",9,4,"Klip_30\Klip_30_1","switch play",7.22896640002728,5,7,1,"Highest free man",3,"Good"
3,"Fosvarsspiller","U17",16,"Højre",9,4,"Klip_22\Klip_22_1","pass it over",12.7623496000888,6,7,1,"Highest free man",4,"Good"
3,"Fosvarsspiller","U17",16,"Højre",9,4,"Klip_36\Klip_36_1","switch play",2.66442560008727,7,7,1,"Highest free man",3,"Good"
3,"Fosvarsspiller","U17",16,"Højre",9,4,"Klip_77\Klip_77_2","link out2",7.59391079994384,8,7,2,"Link out",2,"Best"
3,"Fosvarsspiller","U17",16,"Højre",9,4,"Klip_69\Klip_69_2","false highest free man",4.12799100007396,9,7,2,"Link out",5,"Bad"
3,"Fosvarsspiller","U17",16,"Højre",9,4,"Klip_59\Klip_59_1","highest free man2",2.78993890003767,10,7,1,"Highest free man",1,"Best"
3,"Fosvarsspiller","U17",16,"Højre",9,4,"Klip_23\Klip_23_2","switch play",19.6560509999981,11,7,2,"Link out",3,"Good"
3,"Fosvarsspiller","U17",16,"Højre",9,4,"Klip_7\Klip_7_1","pass it over",6.93071420001797,12,7,1,"Highest free man",4,"Good"
3,"Fosvarsspiller","U17",16,"Højre",9,4,"Klip_8\Klip_8_2","false highest free man",9.12807960005011,13,7,2,"Link out",5,"Bad"
3,"Fosvarsspiller","U17",16,"Højre",9,4,"Klip_14\Klip_14_1","switch play2",6.11936929996591,14,7,1,"Highest free man",3,"Good"
3,"Fosvarsspiller","U17",16,"Højre",9,4,"Klip_85\Klip_85_4","pass it over",5.33840479992796,15,7,4,"Pass it over the opponent",4,"Best"
3,"Fosvarsspiller","U17",16,"Højre",9,4,"Klip_33\Klip_33_1","highest free man",9.68881279998459,16,7,1,"Highest free man",1,"Best"
3,"Fosvarsspiller","U17",16,"Højre",9,4,"Klip_75\Klip_75_1","false pass it over",4.8006682000123,17,7,1,"Highest free man",8,"Bad"
3,"Fosvarsspiller","U17",16,"Højre",9,4,"Klip_83\Klip_83_4","pass it over",2.74486439989414,18,7,4,"Pass it over the opponent",4,"Best"
3,"Fosvarsspiller","U17",16,"Højre",9,4,"Klip_92\Klip_92_3","switch play2",2.22313679999206,19,7,3,"Switch play to open lines",3,"Best"
3,"Fosvarsspiller","U17",16,"Højre",9,4,"Klip_5\Klip_5_1","highest free man",12.6666162000038,20,7,1,"Highest free man",1,"Best"
3,"Fosvarsspiller","U17",16,"Højre",9,4,"Klip_74\Klip_74_1","highest free man",6.98151379998308,21,7,1,"Highest free man",1,"Best"
3,"Fosvarsspiller","U17",16,"Højre",9,4,"Klip_93\Klip_93_3","switch play",3.23226949991658,22,7,3,"Switch play to open lines",3,"Best"
3,"Fosvarsspiller","U17",16,"Højre",9,4,"Klip_15\Klip_15_1","pass it over",4.14698730001692,23,7,1,"Highest free man",4,"Good"
3,"Fosvarsspiller","U17",16,"Højre",9,4,"Klip_39\Klip_39_3","switch play2",3.52403820003383,24,7,3,"Switch play to open lines",3,"Best"
3,"Fosvarsspiller","U17",16,"Højre",9,4,"Klip_35\Klip_35_1","highest free man",1.62447719997726,25,7,1,"Highest free man",1,"Best"
3,"Fosvarsspiller","U17",16,"Højre",9,4,"Klip_88\Klip_88_4","false switch play",6.76310849993024,26,7,4,"Pass it over the opponent",7,"Bad"
3,"Fosvarsspiller","U17",16,"Højre",9,4,"Klip_12\Klip_12_2","link out",14.0303669000277,27,7,2,"Link out",2,"Best"
3,"Fosvarsspiller","U17",16,"Højre",9,4,"Klip_89\Klip_89_4","false switch play",1.91589949990157,28,7,4,"Pass it over the opponent",7,"Bad"
3,"Fosvarsspiller","U17",16,"Højre",9,4,"Klip_73\Klip_73_2","false highest free man",15.7259936999762,29,7,2,"Link out",5,"Bad"
3,"Fosvarsspiller","U17",16,"Højre",9,4,"Klip_43\Klip_43_2","switch play",6.33525550004561,30,7,2,"Link out",3,"Good"
3,"Fosvarsspiller","U17",16,"Højre",9,4,"Klip_18\Klip_18_3","switch play",7.2315601001028,31,7,3,"Switch play to open lines",3,"Best"
3,"Fosvarsspiller","U17",16,"Højre",9,4,"Klip_26\Klip_26_1","false highest free man",3.16646209999453,32,7,1,"Highest free man",5,"Bad"
3,"Fosvarsspiller","U17",16,"Højre",9,4,"Klip_45\Klip_45_3","false highest free man2",4.15014450007584,33,7,3,"Switch play to open lines",5,"Bad"
3,"Fosvarsspiller","U17",16,"Højre",9,4,"Klip_27\Klip_27_1","highest free man2",3.75475459999871,34,7,1,"Highest free man",1,"Best"
3,"Fosvarsspiller","U17",16,"Højre",9,4,"Klip_32\Klip_32_3","false highest free man",8.08304489997681,35,7,3,"Switch play to open lines",5,"Bad"
3,"Fosvarsspiller","U17",16,"Højre",9,4,"Klip_71\Klip_71_3","switch play",7.89559079997707,36,7,3,"Switch play to open lines",3,"Best"
3,"Fosvarsspiller","U17",16,"Højre",9,4,"Klip_60\Klip_60_3","switch play",8.80416000005789,37,7,3,"Switch play to open lines",3,"Best"
3,"Fosvarsspiller","U17",16,"Højre",9,4,"Klip_82\Klip_82_4","pass it over",6.32094359991606,38,7,4,"Pass it over the opponent",4,"Best"
3,"Fosvarsspiller","U17",16,"Højre",9,4,"Klip_16\Klip_16_1","highest free man",8.68904620001558,39,7,1,"Highest free man",1,"Best"
3,"Fosvarsspiller","U17",16,"Højre",9,4,"Klip_90\Klip_90_4","false link out2",4.05055819998961,40,7,4,"Pass it over the opponent",6,"Bad"
3,"Fosvarsspiller","U17",16,"Højre",9,4,"Klip_64\Klip_64_2","link out",11.537196499994,41,7,2,"Link out",2,"Best"
3,"Fosvarsspiller","U17",16,"Højre",9,4,"Klip_38\Klip_38_1","false link out",3.09142939990852,42,7,1,"Highest free man",6,"Bad"
3,"Fosvarsspiller","U17",16,"Højre",9,4,"Klip_84\Klip_84_4","false switch play2",6.72590640000999,43,7,4,"Pass it over the opponent",7,"Bad"
3,"Fosvarsspiller","U17",16,"Højre",9,4,"Klip_55\Klip_55_2","link out",3.70988910004962,44,7,2,"Link out",2,"Best"
3,"Fosvarsspiller","U17",16,"Højre",9,4,"Klip_62\Klip_62_2","switch play2",4.38288070005365,45,7,2,"Link out",3,"Good"
3,"Fosvarsspiller","U17",16,"Højre",9,4,"Klip_78\Klip_78_1","switch play",5.20941869996022,46,7,1,"Highest free man",3,"Good"
3,"Fosvarsspiller","U17",16,"Højre",9,4,"Klip_86\Klip_86_3","switch play",4.99134900001809,47,7,3,"Switch play to open lines",3,"Best"
3,"Fosvarsspiller","U17",16,"Højre",9,4,"Klip_58\Klip_58_3","switch play2",5.3864572000457,48,7,3,"Switch play to open lines",3,"Best"
3,"Fosvarsspiller","U17",16,"Højre",9,4,"Klip_80\Klip_80_3","false link out2",7.53246089990716,49,7,3,"Switch play to open lines",6,"Bad"
3,"Fosvarsspiller","U17",16,"Højre",9,4,"Klip_24\Klip_24_2","switch play2",6.23402149998583,50,7,2,"Link out",3,"Good"
3,"Fosvarsspiller","U17",16,"Højre",9,4,"Klip_94\Klip_94_3","pass it over",11.2041944999946,51,7,3,"Switch play to open lines",4,"Good"
3,"Fosvarsspiller","U17",16,"Højre",9,4,"Klip_6\Klip_6_1","link out",2.63462839997374,52,7,1,"Highest free man",2,"Good"
3,"Fosvarsspiller","U17",16,"Højre",9,4,"Klip_70\Klip_70_1","highest free man",2.71576859999914,53,7,1,"Highest free man",1,"Best"
3,"Fosvarsspiller","U17",16,"Højre",9,4,"Klip_28\Klip_28_3","switch play2",10.9095782999648,54,7,3,"Switch play to open lines",3,"Best"
3,"Fosvarsspiller","U17",16,"Højre",9,4,"Klip_72\Klip_72_1","highest free man",4.15741899993736,55,7,1,"Highest free man",1,"Best"
3,"Fosvarsspiller","U17",16,"Højre",9,4,"Klip_17\Klip_17_2","pass it over",2.6268662000075,56,7,2,"Link out",4,"Good"
3,"Fosvarsspiller","U17",16,"Højre",9,4,"Klip_87\Klip_87_3","false highest free man",9.35951819992624,57,7,3,"Switch play to open lines",5,"Bad"
3,"Fosvarsspiller","U17",16,"Højre",9,4,"Klip_10\Klip_10_1","link out",1.86316540010739,58,7,1,"Highest free man",2,"Good"
3,"Fosvarsspiller","U17",16,"Højre",9,4,"Klip_91\Klip_91_3","switch play",2.2935989999678,59,7,3,"Switch play to open lines",3,"Best"
3,"Fosvarsspiller","U17",16,"Højre",9,4,"Klip_21\Klip_21_2","pass it over",10.4937632000074,60,7,2,"Link out",4,"Good"
3,"Fosvarsspiller","U17",16,"Højre",9,4,"Klip_57\Klip_57_2","link out",7.87507479998749,61,7,2,"Link out",2,"Best"
3,"Fosvarsspiller","U17",16,"Højre",9,4,"Klip_81\Klip_81_4","false switch play",9.47681549994741,62,7,4,"Pass it over the opponent",7,"Bad"
3,"Fosvarsspiller","U17",16,"Højre",9,4,"Klip_13\Klip_13_1","highest free man",3.19734429998789,63,7,1,"Highest free man",1,"Best"
3,"Fosvarsspiller","U17",16,"Højre",9,4,"Klip_65\Klip_65_2","link out",9.90708420006558,64,7,2,"Link out",2,"Best"
3,"Fosvarsspiller","U19",18,"Venstre",14,2,"Warmup/Klip_2\Klip_2_2","switch play",4.63069890008774,1,8,2,"Link out",3,"Good"
3,"Fosvarsspiller","U19",18,"Venstre",14,2,"Warmup/Klip_1\Klip_1_1","link out",3.74604769994039,2,8,1,"Highest free man",2,"Good"
3,"Fosvarsspiller","U19",18,"Venstre",14,2,"Warmup/Klip_3\Klip_3_1","highest free man",6.88949980004691,3,8,1,"Highest free man",1,"Best"
3,"Fosvarsspiller","U19",18,"Venstre",14,2,"Klip_86\Klip_86_3","switch play",6.41026770009194,4,8,3,"Switch play to open lines",3,"Best"
3,"Fosvarsspiller","U19",18,"Venstre",14,2,"Klip_77\Klip_77_2","link out2",12.4034865000285,5,8,2,"Link out",2,"Best"
3,"Fosvarsspiller","U19",18,"Venstre",14,2,"Klip_94\Klip_94_3","switch play",12.4648653999902,6,8,3,"Switch play to open lines",3,"Best"
3,"Fosvarsspiller","U19",18,"Venstre",14,2,"Klip_5\Klip_5_1","highest free man",11.8550815000199,7,8,1,"Highest free man",1,"Best"
3,"Fosvarsspiller","U19",18,"Venstre",14,2,"Klip_7\Klip_7_1","link out",2.86028669995721,8,8,1,"Highest free man",2,"Good"
3,"Fosvarsspiller","U19",18,"Venstre",14,2,"Klip_15\Klip_15_1","pass it over",4.05229779996444,9,8,1,"Highest free man",4,"Good"
3,"Fosvarsspiller","U19",18,"Venstre",14,2,"Klip_26\Klip_26_1","highest free man",3.38267299998552,10,8,1,"Highest free man",1,"Best"
3,"Fosvarsspiller","U19",18,"Venstre",14,2,"Klip_85\Klip_85_4","pass it over",4.32865180005319,11,8,4,"Pass it over the opponent",4,"Best"
3,"Fosvarsspiller","U19",18,"Venstre",14,2,"Klip_43\Klip_43_2","switch play",2.80085490003694,12,8,2,"Link out",3,"Good"
3,"Fosvarsspiller","U19",18,"Venstre",14,2,"Klip_33\Klip_33_1","link out2",1.49458469997626,13,8,1,"Highest free man",2,"Good"
3,"Fosvarsspiller","U19",18,"Venstre",14,2,"Klip_57\Klip_57_2","switch play2",9.26838280004449,14,8,2,"Link out",3,"Good"
3,"Fosvarsspiller","U19",18,"Venstre",14,2,"Klip_30\Klip_30_1","switch play",5.16102160001174,15,8,1,"Highest free man",3,"Good"
3,"Fosvarsspiller","U19",18,"Venstre",14,2,"Klip_70\Klip_70_1","highest free man",3.61099920002744,16,8,1,"Highest free man",1,"Best"
3,"Fosvarsspiller","U19",18,"Venstre",14,2,"Klip_36\Klip_36_1","switch play",3.66624839999713,17,8,1,"Highest free man",3,"Good"
3,"Fosvarsspiller","U19",18,"Venstre",14,2,"Klip_71\Klip_71_3","switch play",3.34321190009359,18,8,3,"Switch play to open lines",3,"Best"
3,"Fosvarsspiller","U19",18,"Venstre",14,2,"Klip_59\Klip_59_1","highest free man2",3.01981179998256,19,8,1,"Highest free man",1,"Best"
3,"Fosvarsspiller","U19",18,"Venstre",14,2,"Klip_80\Klip_80_3","switch play2",2.99630179989617,20,8,3,"Switch play to open lines",3,"Best"
3,"Fosvarsspiller","U19",18,"Venstre",14,2,"Klip_87\Klip_87_3","false switch play",4.20750589994714,21,8,3,"Switch play to open lines",7,"Bad"
3,"Fosvarsspiller","U19",18,"Venstre",14,2,"Klip_88\Klip_88_4","false switch play",3.95802539994475,22,8,4,"Pass it over the opponent",7,"Bad"
3,"Fosvarsspiller","U19",18,"Venstre",14,2,"Klip_90\Klip_90_4","pass it over",3.86436829995364,23,8,4,"Pass it over the opponent",4,"Best"
3,"Fosvarsspiller","U19",18,"Venstre",14,2,"Klip_18\Klip_18_3","switch play",6.33856349997222,24,8,3,"Switch play to open lines",3,"Best"
3,"Fosvarsspiller","U19",18,"Venstre",14,2,"Klip_60\Klip_60_3","switch play",8.64207649999298,25,8,3,"Switch play to open lines",3,"Best"
3,"Fosvarsspiller","U19",18,"Venstre",14,2,"Klip_24\Klip_24_2","switch play2",7.92954599997029,26,8,2,"Link out",3,"Good"
3,"Fosvarsspiller","U19",18,"Venstre",14,2,"Klip_8\Klip_8_2","switch play",5.02774940000381,27,8,2,"Link out",3,"Good"
3,"Fosvarsspiller","U19",18,"Venstre",14,2,"Klip_28\Klip_28_3","switch play2",7.80998930009082,28,8,3,"Switch play to open lines",3,"Best"
3,"Fosvarsspiller","U19",18,"Venstre",14,2,"Klip_65\Klip_65_2","switch play",4.68877590005286,29,8,2,"Link out",3,"Good"
3,"Fosvarsspiller","U19",18,"Venstre",14,2,"Klip_84\Klip_84_4","pass it over",7.46122559998184,30,8,4,"Pass it over the opponent",4,"Best"
3,"Fosvarsspiller","U19",18,"Venstre",14,2,"Klip_92\Klip_92_3","false link out",3.17588480003178,31,8,3,"Switch play to open lines",6,"Bad"
3,"Fosvarsspiller","U19",18,"Venstre",14,2,"Klip_93\Klip_93_3","switch play",2.58598940004595,32,8,3,"Switch play to open lines",3,"Best"
3,"Fosvarsspiller","U19",18,"Venstre",14,2,"Klip_10\Klip_10_1","link out",1.72361690003891,33,8,1,"Highest free man",2,"Good"
3,"Fosvarsspiller","U19",18,"Venstre",14,2,"Klip_81\Klip_81_4","pass it over",2.24756639997941,34,8,4,"Pass it over the opponent",4,"Best"
3,"Fosvarsspiller","U19",18,"Venstre",14,2,"Klip_62\Klip_62_2","switch play2",2.95561980002094,35,8,2,"Link out",3,"Good"
3,"Fosvarsspiller","U19",18,"Venstre",14,2,"Klip_14\Klip_14_1","switch play2",3.22089509991929,36,8,1,"Highest free man",3,"Good"
3,"Fosvarsspiller","U19",18,"Venstre",14,2,"Klip_83\Klip_83_4","pass it over",1.28920150001068,37,8,4,"Pass it over the opponent",4,"Best"
3,"Fosvarsspiller","U19",18,"Venstre",14,2,"Klip_23\Klip_23_2","switch play2",1.82890919991769,38,8,2,"Link out",3,"Good"
3,"Fosvarsspiller","U19",18,"Venstre",14,2,"Klip_74\Klip_74_1","highest free man",1.18853270006366,39,8,1,"Highest free man",1,"Best"
3,"Fosvarsspiller","U19",18,"Venstre",14,2,"Klip_91\Klip_91_3","switch play",4.71049980004318,40,8,3,"Switch play to open lines",3,"Best"
3,"Fosvarsspiller","U19",18,"Venstre",14,2,"Klip_38\Klip_38_1","highest free man",3.36792250000872,41,8,1,"Highest free man",1,"Best"
3,"Fosvarsspiller","U19",18,"Venstre",14,2,"Klip_89\Klip_89_4","false switch play",8.64035010000225,42,8,4,"Pass it over the opponent",7,"Bad"
3,"Fosvarsspiller","U19",18,"Venstre",14,2,"Klip_69\Klip_69_2","switch play",3.534894399927,43,8,2,"Link out",3,"Good"
3,"Fosvarsspiller","U19",18,"Venstre",14,2,"Klip_32\Klip_32_3","false highest free man",3.7994060999481,44,8,3,"Switch play to open lines",5,"Bad"
3,"Fosvarsspiller","U19",18,"Venstre",14,2,"Klip_39\Klip_39_3","switch play2",2.20725620002486,45,8,3,"Switch play to open lines",3,"Best"
3,"Fosvarsspiller","U19",18,"Venstre",14,2,"Klip_73\Klip_73_2","switch play",1.83234369999263,46,8,2,"Link out",3,"Good"
3,"Fosvarsspiller","U19",18,"Venstre",14,2,"Klip_64\Klip_64_2","pass it over",5.01558899995871,47,8,2,"Link out",4,"Good"
3,"Fosvarsspiller","U19",18,"Venstre",14,2,"Klip_16\Klip_16_1","link out",3.31266940000933,48,8,1,"Highest free man",2,"Good"
3,"Fosvarsspiller","U19",18,"Venstre",14,2,"Klip_22\Klip_22_1","switch play",1.08748840005137,49,8,1,"Highest free man",3,"Good"
3,"Fosvarsspiller","U19",18,"Venstre",14,2,"Klip_66\Klip_66_1","false link out",1.75610280002002,50,8,1,"Highest free man",6,"Bad"
3,"Fosvarsspiller","U19",18,"Venstre",14,2,"Klip_35\Klip_35_1","highest free man",1.24486570002045,51,8,1,"Highest free man",1,"Best"
3,"Fosvarsspiller","U19",18,"Venstre",14,2,"Klip_58\Klip_58_3","switch play2",1.079143900075,52,8,3,"Switch play to open lines",3,"Best"
3,"Fosvarsspiller","U19",18,"Venstre",14,2,"Klip_17\Klip_17_2","pass it over",0.728040799964219,53,8,2,"Link out",4,"Good"
3,"Fosvarsspiller","U19",18,"Venstre",14,2,"Klip_82\Klip_82_4","pass it over",1.92999099998269,54,8,4,"Pass it over the opponent",4,"Best"
3,"Fosvarsspiller","U19",18,"Venstre",14,2,"Klip_6\Klip_6_1","switch play",2.03672199998982,55,8,1,"Highest free man",3,"Good"
3,"Fosvarsspiller","U19",18,"Venstre",14,2,"Klip_72\Klip_72_1","switch play",1.62191270000767,56,8,1,"Highest free man",3,"Good"
3,"Fosvarsspiller","U19",18,"Venstre",14,2,"Klip_45\Klip_45_3","switch play2",0.935834000003524,57,8,3,"Switch play to open lines",3,"Best"
3,"Fosvarsspiller","U19",18,"Venstre",14,2,"Klip_75\Klip_75_1","highest free man",0.924927499960177,58,8,1,"Highest free man",1,"Best"
3,"Fosvarsspiller","U19",18,"Venstre",14,2,"Klip_55\Klip_55_2","link out",2.50447449996136,59,8,2,"Link out",2,"Best"
3,"Fosvarsspiller","U19",18,"Venstre",14,2,"Klip_27\Klip_27_1","link out",2.90878130006604,60,8,1,"Highest free man",2,"Good"
3,"Fosvarsspiller","U19",18,"Venstre",14,2,"Klip_78\Klip_78_1","switch play",2.25397909991443,61,8,1,"Highest free man",3,"Good"
3,"Fosvarsspiller","U19",18,"Venstre",14,2,"Klip_21\Klip_21_2","switch play",2.39586500008591,62,8,2,"Link out",3,"Good"
3,"Fosvarsspiller","U19",18,"Venstre",14,2,"Klip_13\Klip_13_1","highest free man2",1.08029489999171,63,8,1,"Highest free man",1,"Best"
3,"Fosvarsspiller","U19",18,"Venstre",14,2,"Klip_12\Klip_12_2","switch play",3.29715859994758,64,8,2,"Link out",3,"Good"
4,"Fosvarsspiller","U13",12,"Højre",8,3,"Warmup/Klip_3\Klip_3_1","highest free man",10.2214066999732,1,2,1,"Highest free man",1,"Best"
4,"Fosvarsspiller","U13",12,"Højre",8,3,"Warmup/Klip_2\Klip_2_2","switch play2",9.41473739990033,2,2,2,"Link out",3,"Good"
4,"Fosvarsspiller","U13",12,"Højre",8,3,"Warmup/Klip_1\Klip_1_1","link out",10.7215398000553,3,2,1,"Highest free man",2,"Good"
4,"Fosvarsspiller","U13",12,"Højre",8,3,"Klip_43\Klip_43_2","switch play",6.44260509999003,4,2,2,"Link out",3,"Good"
4,"Fosvarsspiller","U13",12,"Højre",8,3,"Klip_7\Klip_7_1","link out",5.36318680003751,5,2,1,"Highest free man",2,"Good"
4,"Fosvarsspiller","U13",12,"Højre",8,3,"Klip_16\Klip_16_1","switch play",17.488507800037,6,2,1,"Highest free man",3,"Good"
4,"Fosvarsspiller","U13",12,"Højre",8,3,"Klip_59\Klip_59_1","highest free man2",10.602438599919,7,2,1,"Highest free man",1,"Best"
4,"Fosvarsspiller","U13",12,"Højre",8,3,"Klip_17\Klip_17_2","link out",17.7125342999352,8,2,2,"Link out",2,"Best"
4,"Fosvarsspiller","U13",12,"Højre",8,3,"Klip_75\Klip_75_1","switch play",17.6987795000896,9,2,1,"Highest free man",3,"Good"
4,"Fosvarsspiller","U13",12,"Højre",8,3,"Klip_92\Klip_92_3","switch play2",6.53487029997632,10,2,3,"Switch play to open lines",3,"Best"
4,"Fosvarsspiller","U13",12,"Højre",8,3,"Klip_22\Klip_22_1","highest free man",10.2851831000298,11,2,1,"Highest free man",1,"Best"
4,"Fosvarsspiller","U13",12,"Højre",8,3,"Klip_81\Klip_81_4","pass it over",12.1407815000275,12,2,4,"Pass it over the opponent",4,"Best"
4,"Fosvarsspiller","U13",12,"Højre",8,3,"Klip_71\Klip_71_3","switch play2",6.60916620003991,13,2,3,"Switch play to open lines",3,"Best"
4,"Fosvarsspiller","U13",12,"Højre",8,3,"Klip_62\Klip_62_2","switch play2",4.45080130000133,14,2,2,"Link out",3,"Good"
4,"Fosvarsspiller","U13",12,"Højre",8,3,"Klip_33\Klip_33_1","link out",14.547544100089,15,2,1,"Highest free man",2,"Good"
4,"Fosvarsspiller","U13",12,"Højre",8,3,"Klip_36\Klip_36_1","switch play",4.56230630003847,16,2,1,"Highest free man",3,"Good"
4,"Fosvarsspiller","U13",12,"Højre",8,3,"Klip_28\Klip_28_3","switch play2",5.39064819994383,17,2,3,"Switch play to open lines",3,"Best"
4,"Fosvarsspiller","U13",12,"Højre",8,3,"Klip_93\Klip_93_3","switch play",6.35712369997054,18,2,3,"Switch play to open lines",3,"Best"
4,"Fosvarsspiller","U13",12,"Højre",8,3,"Klip_23\Klip_23_2","switch play",6.69755599997006,19,2,2,"Link out",3,"Good"
4,"Fosvarsspiller","U13",12,"Højre",8,3,"Klip_10\Klip_10_1","link out",4.06583360000513,20,2,1,"Highest free man",2,"Good"
4,"Fosvarsspiller","U13",12,"Højre",8,3,"Klip_94\Klip_94_3","switch play2",3.44800490001217,21,2,3,"Switch play to open lines",3,"Best"
4,"Fosvarsspiller","U13",12,"Højre",8,3,"Klip_85\Klip_85_4","pass it over",9.81373999989592,22,2,4,"Pass it over the opponent",4,"Best"
4,"Fosvarsspiller","U13",12,"Højre",8,3,"Klip_64\Klip_64_2","switch play",7.25547059997916,23,2,2,"Link out",3,"Good"
4,"Fosvarsspiller","U13",12,"Højre",8,3,"Klip_88\Klip_88_4","false switch play",5.55254050006624,24,2,4,"Pass it over the opponent",7,"Bad"
4,"Fosvarsspiller","U13",12,"Højre",8,3,"Klip_89\Klip_89_4","false switch play",5.76224299997557,25,2,4,"Pass it over the opponent",7,"Bad"
4,"Fosvarsspiller","U13",12,"Højre",8,3,"Klip_72\Klip_72_1","highest free man",2.79315919999499,26,2,1,"Highest free man",1,"Best"
4,"Fosvarsspiller","U13",12,"Højre",8,3,"Klip_80\Klip_80_3","false link out2",6.37958640011493,27,2,3,"Switch play to open lines",6,"Bad"
4,"Fosvarsspiller","U13",12,"Højre",8,3,"Klip_27\Klip_27_1","highest free man",6.94338800001424,28,2,1,"Highest free man",1,"Best"
4,"Fosvarsspiller","U13",12,"Højre",8,3,"Klip_32\Klip_32_3","switch play2",11.7926786999451,29,2,3,"Switch play to open lines",3,"Best"
4,"Fosvarsspiller","U13",12,"Højre",8,3,"Klip_60\Klip_60_3","false link out",4.44257559999824,30,2,3,"Switch play to open lines",6,"Bad"
4,"Fosvarsspiller","U13",12,"Højre",8,3,"Klip_90\Klip_90_4","false link out2",3.73450420005247,31,2,4,"Pass it over the opponent",6,"Bad"
4,"Fosvarsspiller","U13",12,"Højre",8,3,"Klip_91\Klip_91_3","pass it over",3.90353299991693,32,2,3,"Switch play to open lines",4,"Good"
4,"Fosvarsspiller","U13",12,"Højre",8,3,"Klip_73\Klip_73_2","switch play2",6.53809220006224,33,2,2,"Link out",3,"Good"
4,"Fosvarsspiller","U13",12,"Højre",8,3,"Klip_66\Klip_66_1","highest free man",2.56518270005472,34,2,1,"Highest free man",1,"Best"
4,"Fosvarsspiller","U13",12,"Højre",8,3,"Klip_13\Klip_13_1","highest free man2",1.79802770004608,35,2,1,"Highest free man",1,"Best"
4,"Fosvarsspiller","U13",12,"Højre",8,3,"Klip_77\Klip_77_2","link out2",2.02589649998117,36,2,2,"Link out",2,"Best"
4,"Fosvarsspiller","U13",12,"Højre",8,3,"Klip_35\Klip_35_1","highest free man",2.56421610002872,37,2,1,"Highest free man",1,"Best"
4,"Fosvarsspiller","U13",12,"Højre",8,3,"Klip_78\Klip_78_1","switch play",12.3367468999932,38,2,1,"Highest free man",3,"Good"
4,"Fosvarsspiller","U13",12,"Højre",8,3,"Klip_30\Klip_30_1","switch play",3.92458740004804,39,2,1,"Highest free man",3,"Good"
4,"Fosvarsspiller","U13",12,"Højre",8,3,"Klip_38\Klip_38_1","false link out",4.85502060002182,40,2,1,"Highest free man",6,"Bad"
4,"Fosvarsspiller","U13",12,"Højre",8,3,"Klip_26\Klip_26_1","highest free man",1.64807350002229,41,2,1,"Highest free man",1,"Best"
4,"Fosvarsspiller","U13",12,"Højre",8,3,"Klip_45\Klip_45_3","false highest free man",8.29041550005786,42,2,3,"Switch play to open lines",5,"Bad"
4,"Fosvarsspiller","U13",12,"Højre",8,3,"Klip_24\Klip_24_2","switch play",2.57618999993429,43,2,2,"Link out",3,"Good"
4,"Fosvarsspiller","U13",12,"Højre",8,3,"Klip_83\Klip_83_4","pass it over",7.75536690000445,44,2,4,"Pass it over the opponent",4,"Best"
4,"Fosvarsspiller","U13",12,"Højre",8,3,"Klip_69\Klip_69_2","false highest free man",3.1034018000355,45,2,2,"Link out",5,"Bad"
4,"Fosvarsspiller","U13",12,"Højre",8,3,"Klip_58\Klip_58_3","switch play2",8.08942289999686,46,2,3,"Switch play to open lines",3,"Best"
4,"Fosvarsspiller","U13",12,"Højre",8,3,"Klip_14\Klip_14_1","highest free man",2.15987010009121,47,2,1,"Highest free man",1,"Best"
4,"Fosvarsspiller","U13",12,"Højre",8,3,"Klip_6\Klip_6_1","link out2",4.70964540005662,48,2,1,"Highest free man",2,"Good"
4,"Fosvarsspiller","U13",12,"Højre",8,3,"Klip_84\Klip_84_4","false switch play",2.38695359998383,49,2,4,"Pass it over the opponent",7,"Bad"
4,"Fosvarsspiller","U13",12,"Højre",8,3,"Klip_18\Klip_18_3","pass it over",4.31116080004722,50,2,3,"Switch play to open lines",4,"Good"
4,"Fosvarsspiller","U13",12,"Højre",8,3,"Klip_15\Klip_15_1","highest free man",13.7176389000379,51,2,1,"Highest free man",1,"Best"
4,"Fosvarsspiller","U13",12,"Højre",8,3,"Klip_8\Klip_8_2","switch play",3.10183479997795,52,2,2,"Link out",3,"Good"
4,"Fosvarsspiller","U13",12,"Højre",8,3,"Klip_5\Klip_5_1","false switch play",6.84928339999169,53,2,1,"Highest free man",7,"Bad"
4,"Fosvarsspiller","U13",12,"Højre",8,3,"Klip_12\Klip_12_2","switch play",3.85494190000463,54,2,2,"Link out",3,"Good"
4,"Fosvarsspiller","U13",12,"Højre",8,3,"Klip_82\Klip_82_4","pass it over",4.29900599992834,55,2,4,"Pass it over the opponent",4,"Best"
4,"Fosvarsspiller","U13",12,"Højre",8,3,"Klip_39\Klip_39_3","switch play",5.23537889996078,56,2,3,"Switch play to open lines",3,"Best"
4,"Fosvarsspiller","U13",12,"Højre",8,3,"Klip_65\Klip_65_2","switch play",4.41899479995482,57,2,2,"Link out",3,"Good"
4,"Fosvarsspiller","U13",12,"Højre",8,3,"Klip_74\Klip_74_1","highest free man",8.03003210003953,58,2,1,"Highest free man",1,"Best"
4,"Fosvarsspiller","U13",12,"Højre",8,3,"Klip_86\Klip_86_3","switch play",5.00898709998,59,2,3,"Switch play to open lines",3,"Best"
4,"Fosvarsspiller","U13",12,"Højre",8,3,"Klip_70\Klip_70_1","highest free man",7.03023659996688,60,2,1,"Highest free man",1,"Best"
4,"Fosvarsspiller","U13",12,"Højre",8,3,"Klip_21\Klip_21_2","link out",3.40486470004544,61,2,2,"Link out",2,"Best"
4,"Fosvarsspiller","U13",12,"Højre",8,3,"Klip_55\Klip_55_2","false highest free man",2.75490549998358,62,2,2,"Link out",5,"Bad"
4,"Fosvarsspiller","U13",12,"Højre",8,3,"Klip_57\Klip_57_2","switch play",4.29044170002453,63,2,2,"Link out",3,"Good"
4,"Fosvarsspiller","U13",12,"Højre",8,3,"Klip_87\Klip_87_3","false highest free man",3.95689450006466,64,2,3,"Switch play to open lines",5,"Bad"
5,"Fosvarsspiller","U19",18,"Højre",14,2,"Warmup/Klip_1\Klip_1_1","link out",10.6658817999996,1,9,1,"Highest free man",2,"Good"
5,"Fosvarsspiller","U19",18,"Højre",14,2,"Warmup/Klip_3\Klip_3_1","highest free man",16.8566172000137,2,9,1,"Highest free man",1,"Best"
5,"Fosvarsspiller","U19",18,"Højre",14,2,"Warmup/Klip_2\Klip_2_2","switch play2",25.1504177000024,3,9,2,"Link out",3,"Good"
5,"Fosvarsspiller","U19",18,"Højre",14,2,"Klip_94\Klip_94_3","switch play2",28.5129350000061,4,9,3,"Switch play to open lines",3,"Best"
5,"Fosvarsspiller","U19",18,"Højre",14,2,"Klip_57\Klip_57_2","switch play2",11.9359323999961,5,9,2,"Link out",3,"Good"
5,"Fosvarsspiller","U19",18,"Højre",14,2,"Klip_64\Klip_64_2","pass it over",43.4410324000055,6,9,2,"Link out",4,"Good"
5,"Fosvarsspiller","U19",18,"Højre",14,2,"Klip_81\Klip_81_4","false link out",49.2461698999978,7,9,4,"Pass it over the opponent",6,"Bad"
5,"Fosvarsspiller","U19",18,"Højre",14,2,"Klip_80\Klip_80_3","switch play2",22.0881013000035,8,9,3,"Switch play to open lines",3,"Best"
5,"Fosvarsspiller","U19",18,"Højre",14,2,"Klip_22\Klip_22_1","highest free man",14.8110523999785,9,9,1,"Highest free man",1,"Best"
5,"Fosvarsspiller","U19",18,"Højre",14,2,"Klip_71\Klip_71_3","switch play2",20.5868064000388,10,9,3,"Switch play to open lines",3,"Best"
5,"Fosvarsspiller","U19",18,"Højre",14,2,"Klip_8\Klip_8_2","link out",19.4673248999752,11,9,2,"Link out",2,"Best"
5,"Fosvarsspiller","U19",18,"Højre",14,2,"Klip_23\Klip_23_2","link out",13.7506876999978,12,9,2,"Link out",2,"Best"
5,"Fosvarsspiller","U19",18,"Højre",14,2,"Klip_14\Klip_14_1","switch play2",9.3503791000112,13,9,1,"Highest free man",3,"Good"
5,"Fosvarsspiller","U19",18,"Højre",14,2,"Klip_59\Klip_59_1","highest free man2",7.06018329999642,14,9,1,"Highest free man",1,"Best"
5,"Fosvarsspiller","U19",18,"Højre",14,2,"Klip_82\Klip_82_4","pass it over",19.6844639999908,15,9,4,"Pass it over the opponent",4,"Best"
5,"Fosvarsspiller","U19",18,"Højre",14,2,"Klip_84\Klip_84_4","false switch play",21.7306976000546,16,9,4,"Pass it over the opponent",7,"Bad"
5,"Fosvarsspiller","U19",18,"Højre",14,2,"Klip_7\Klip_7_1","link out",6.41543930000626,17,9,1,"Highest free man",2,"Good"
5,"Fosvarsspiller","U19",18,"Højre",14,2,"Klip_75\Klip_75_1","highest free man",5.14400349999778,18,9,1,"Highest free man",1,"Best"
5,"Fosvarsspiller","U19",18,"Højre",14,2,"Klip_28\Klip_28_3","switch play2",19.8114193000365,19,9,3,"Switch play to open lines",3,"Best"
5,"Fosvarsspiller","U19",18,"Højre",14,2,"Klip_58\Klip_58_3","switch play2",6.22170380002353,20,9,3,"Switch play to open lines",3,"Best"
5,"Fosvarsspiller","U19",18,"Højre",14,2,"Klip_62\Klip_62_2","switch play2",10.604868400027,21,9,2,"Link out",3,"Good"
5,"Fosvarsspiller","U19",18,"Højre",14,2,"Klip_88\Klip_88_4","false switch play",17.2919589999365,22,9,4,"Pass it over the opponent",7,"Bad"
5,"Fosvarsspiller","U19",18,"Højre",14,2,"Klip_60\Klip_60_3","switch play2",14.4793391999556,23,9,3,"Switch play to open lines",3,"Best"
5,"Fosvarsspiller","U19",18,"Højre",14,2,"Klip_16\Klip_16_1","false highest free man",32.2754441000288,24,9,1,"Highest free man",5,"Bad"
5,"Fosvarsspiller","U19",18,"Højre",14,2,"Klip_36\Klip_36_1","switch play",5.3201006000163,25,9,1,"Highest free man",3,"Good"
5,"Fosvarsspiller","U19",18,"Højre",14,2,"Klip_33\Klip_33_1","highest free man",3.82772800000384,26,9,1,"Highest free man",1,"Best"
5,"Fosvarsspiller","U19",18,"Højre",14,2,"Klip_73\Klip_73_2","switch play",5.64717410004232,27,9,2,"Link out",3,"Good"
5,"Fosvarsspiller","U19",18,"Højre",14,2,"Klip_32\Klip_32_3","switch play2",11.8855257000541,28,9,3,"Switch play to open lines",3,"Best"
5,"Fosvarsspiller","U19",18,"Højre",14,2,"Klip_30\Klip_30_1","switch play",5.7195566999726,29,9,1,"Highest free man",3,"Good"
5,"Fosvarsspiller","U19",18,"Højre",14,2,"Klip_5\Klip_5_1","highest free man",4.75086649996229,30,9,1,"Highest free man",1,"Best"
5,"Fosvarsspiller","U19",18,"Højre",14,2,"Klip_90\Klip_90_4","false link out2",9.04640599992126,31,9,4,"Pass it over the opponent",6,"Bad"
5,"Fosvarsspiller","U19",18,"Højre",14,2,"Klip_12\Klip_12_2","switch play",12.6010502000572,32,9,2,"Link out",3,"Good"
5,"Fosvarsspiller","U19",18,"Højre",14,2,"Klip_55\Klip_55_2","false link out",11.1860134999733,33,9,2,"Link out",6,"Bad"
5,"Fosvarsspiller","U19",18,"Højre",14,2,"Klip_24\Klip_24_2","switch play",7.18238789995667,34,9,2,"Link out",3,"Good"
5,"Fosvarsspiller","U19",18,"Højre",14,2,"Klip_77\Klip_77_2","link out2",7.07788200001232,35,9,2,"Link out",2,"Best"
5,"Fosvarsspiller","U19",18,"Højre",14,2,"Klip_86\Klip_86_3","switch play",5.52569769998081,36,9,3,"Switch play to open lines",3,"Best"
5,"Fosvarsspiller","U19",18,"Højre",14,2,"Klip_18\Klip_18_3","switch play",16.6269326000474,37,9,3,"Switch play to open lines",3,"Best"
5,"Fosvarsspiller","U19",18,"Højre",14,2,"Klip_69\Klip_69_2","switch play",9.57182850001846,38,9,2,"Link out",3,"Good"
5,"Fosvarsspiller","U19",18,"Højre",14,2,"Klip_15\Klip_15_1","highest free man",8.2689737000037,39,9,1,"Highest free man",1,"Best"
5,"Fosvarsspiller","U19",18,"Højre",14,2,"Klip_70\Klip_70_1","highest free man",4.77080189995468,40,9,1,"Highest free man",1,"Best"
5,"Fosvarsspiller","U19",18,"Højre",14,2,"Klip_74\Klip_74_1","highest free man",3.44092109997291,41,9,1,"Highest free man",1,"Best"
5,"Fosvarsspiller","U19",18,"Højre",14,2,"Klip_66\Klip_66_1","highest free man",9.30326810001861,42,9,1,"Highest free man",1,"Best"
5,"Fosvarsspiller","U19",18,"Højre",14,2,"Klip_6\Klip_6_1","link out",12.2888280999614,43,9,1,"Highest free man",2,"Good"
5,"Fosvarsspiller","U19",18,"Højre",14,2,"Klip_72\Klip_72_1","switch play",14.6378875999944,44,9,1,"Highest free man",3,"Good"
5,"Fosvarsspiller","U19",18,"Højre",14,2,"Klip_39\Klip_39_3","switch play2",15.0090149000753,45,9,3,"Switch play to open lines",3,"Best"
5,"Fosvarsspiller","U19",18,"Højre",14,2,"Klip_10\Klip_10_1","highest free man",4.16886979993433,46,9,1,"Highest free man",1,"Best"
5,"Fosvarsspiller","U19",18,"Højre",14,2,"Klip_43\Klip_43_2","link out",11.6260902000358,47,9,2,"Link out",2,"Best"
5,"Fosvarsspiller","U19",18,"Højre",14,2,"Klip_26\Klip_26_1","switch play",4.77695079997648,48,9,1,"Highest free man",3,"Good"
5,"Fosvarsspiller","U19",18,"Højre",14,2,"Klip_27\Klip_27_1","highest free man2",10.2095395000651,49,9,1,"Highest free man",1,"Best"
5,"Fosvarsspiller","U19",18,"Højre",14,2,"Klip_65\Klip_65_2","switch play",11.7551310999552,50,9,2,"Link out",3,"Good"
5,"Fosvarsspiller","U19",18,"Højre",14,2,"Klip_92\Klip_92_3","switch play",18.0698082000017,51,9,3,"Switch play to open lines",3,"Best"
5,"Fosvarsspiller","U19",18,"Højre",14,2,"Klip_78\Klip_78_1","highest free man",10.2127521999646,52,9,1,"Highest free man",1,"Best"
5,"Fosvarsspiller","U19",18,"Højre",14,2,"Klip_93\Klip_93_3","switch play",5.4643840000499,53,9,3,"Switch play to open lines",3,"Best"
5,"Fosvarsspiller","U19",18,"Højre",14,2,"Klip_38\Klip_38_1","highest free man2",11.9045274999226,54,9,1,"Highest free man",1,"Best"
5,"Fosvarsspiller","U19",18,"Højre",14,2,"Klip_35\Klip_35_1","highest free man",3.62841470004059,55,9,1,"Highest free man",1,"Best"
5,"Fosvarsspiller","U19",18,"Højre",14,2,"Klip_91\Klip_91_3","switch play2",5.91004779993091,56,9,3,"Switch play to open lines",3,"Best"
5,"Fosvarsspiller","U19",18,"Højre",14,2,"Klip_21\Klip_21_2","switch play",15.4240242000669,57,9,2,"Link out",3,"Good"
5,"Fosvarsspiller","U19",18,"Højre",14,2,"Klip_13\Klip_13_1","highest free man2",3.07265959994402,58,9,1,"Highest free man",1,"Best"
5,"Fosvarsspiller","U19",18,"Højre",14,2,"Klip_17\Klip_17_2","link out",8.31243129994255,59,9,2,"Link out",2,"Best"
5,"Fosvarsspiller","U19",18,"Højre",14,2,"Klip_89\Klip_89_4","false switch play",14.1586522000143,60,9,4,"Pass it over the opponent",7,"Bad"
5,"Fosvarsspiller","U19",18,"Højre",14,2,"Klip_83\Klip_83_4","false highest free man",2.26766030001454,61,9,4,"Pass it over the opponent",5,"Bad"
5,"Fosvarsspiller","U19",18,"Højre",14,2,"Klip_45\Klip_45_3","switch play2",3.8610869999975,62,9,3,"Switch play to open lines",3,"Best"
5,"Fosvarsspiller","U19",18,"Højre",14,2,"Klip_85\Klip_85_4","pass it over",3.19619829999283,63,9,4,"Pass it over the opponent",4,"Best"
5,"Fosvarsspiller","U19",18,"Højre",14,2,"Klip_87\Klip_87_3","switch play",12.6677138999803,64,9,3,"Switch play to open lines",3,"Best"
